File: Dataset/AANDCNet/cell2/cycle_14/Test1535.csv
Test:,1535,,,,,,,
Start Time:,7/17/2021 1:40 PM,,,,,,,
End Time:,7/17/2021 3:45 PM,,,,,,,
Test,Rack,Shelf,Position,Voltage (V),Current (A),Discharge Capacity (mAh),TC_1 (C),
1535,SBT4050,1,5,4.14323,0,0,19.6,
1535,SBT4050,1,5,4.1436,0,0,19.7,
1535,SBT4050,1,5,4.143474,0,0,19.7,
1535,SBT4050,1,5,4.14359,0,0,19.6,
1535,SBT4050,1,5,4.14346,0,0,19.7,
1535,SBT4050,1,5,4.14335,0,0,19.7,
1535,SBT4050,1,5,4.14342,0,0,19.7,
1535,SBT4050,1,5,4.14341,0,0,19.6,
1535,SBT4050,1,5,4.143704,0,0,19.7,
1535,SBT4050,1,5,4.14329,0,0,19.7,
1535,SBT4050,1,5,4.14321,0,0,19.6,
1535,SBT4050,1,5,4.143608,0,0,19.6,
1535,SBT4050,1,5,4.14329,0,0,19.7,
1535,SBT4050,1,5,4.1433,0,0,19.7,
1535,SBT4050,1,5,4.14301,0,0,19.7,
1535,SBT4050,1,5,4.1432,0,0,19.8,
1535,SBT4050,1,5,4.14327,0,0,19.8,
1535,SBT4050,1,5,4.14333,0,0,19.8,
1535,SBT4050,1,5,4.14311,0,0,19.8,
1535,SBT4050,1,5,4.14344,0,0,19.8,
1535,SBT4050,1,5,4.14334,0,0,19.9,
1535,SBT4050,1,5,4.14335,0,0,19.8,
1535,SBT4050,1,5,4.14336,0,0,19.9,
1535,SBT4050,1,5,4.14324,0,0,19.9,
1535,SBT4050,1,5,4.14332,0,0,19.9,
1535,SBT4050,1,5,4.14329,0,0,20,
1535,SBT4050,1,5,4.143456,0,0,19.9,
1535,SBT4050,1,5,4.14327,0,0,20,
1535,SBT4050,1,5,4.14318,0,0,19.9,
1535,SBT4050,1,5,4.14342,0,0,20,
1535,SBT4050,1,5,4.14314,0,0,19.9,
1535,SBT4050,1,5,4.14347,0,0,20,
1535,SBT4050,1,5,4.14352,0,0,20,
1535,SBT4050,1,5,4.14342,0,0,19.9,
1535,SBT4050,1,5,4.143608,0,0,20,
1535,SBT4050,1,5,4.14354,0,0,19.9,
1535,SBT4050,1,5,4.14337,0,0,20,
1535,SBT4050,1,5,4.14328,0,0,20,
1535,SBT4050,1,5,4.14353,0,0,20,
1535,SBT4050,1,5,4.14352,0,0,20,
1535,SBT4050,1,5,4.143338,0,0,20,
1535,SBT4050,1,5,4.14358,0,0,20,
1535,SBT4050,1,5,4.14361,0,0,20,
1535,SBT4050,1,5,4.21568,2.4631,0,20,
1535,SBT4050,1,5,4.20168,1.4583,0,20,
1535,SBT4050,1,5,4.201382,1.2155,0,20,
1535,SBT4050,1,5,4.20106,1.0584,0,19.9,
1535,SBT4050,1,5,4.20087,0.9483,0,19.9,
1535,SBT4050,1,5,4.20063,0.8585,0,20,
1535,SBT4050,1,5,4.2007,0.7861,0,20,
1535,SBT4050,1,5,4.20052,0.7282,0,20,
1535,SBT4050,1,5,4.20068,0.6761,0,19.9,
1535,SBT4050,1,5,4.20051,0.6316,0,20,
1535,SBT4050,1,5,4.20042,0.5925,0,20,
1535,SBT4050,1,5,4.2003,0.5586,0,20,
1535,SBT4050,1,5,4.20043,0.5265,0,19.9,
1535,SBT4050,1,5,4.20023,0.497,0,20,
1535,SBT4050,1,5,4.20051,0.47175,0,20,
1535,SBT4050,1,5,4.200476,0.44678,0,20,
1535,SBT4050,1,5,4.2004,0.42505,0,20.1,
1535,SBT4050,1,5,4.20038,0.40405,0,20,
1535,SBT4050,1,5,4.200476,0.38833,0,20,
1535,SBT4050,1,5,4.20033,0.37293,0,20,
1535,SBT4050,1,5,4.2003,0.35599,0,20,
1535,SBT4050,1,5,4.20025,0.34108,0,20,
1535,SBT4050,1,5,4.2005,0.32523,0,20,
1535,SBT4050,1,5,4.20026,0.31164,0,20,
1535,SBT4050,1,5,4.20027,0.3004,0,20,
1535,SBT4050,1,5,4.20037,0.29045,0,20,
1535,SBT4050,1,5,4.200154,0.28041,0,20,
1535,SBT4050,1,5,4.200464,0.27064,0,20,
1535,SBT4050,1,5,4.20054,0.26081,0,20.1,
1535,SBT4050,1,5,4.20065,0.25175,0,20,
1535,SBT4050,1,5,4.20021,0.24305,0,20,
1535,SBT4050,1,5,4.20029,0.23402,0,20,
1535,SBT4050,1,5,4.20033,0.22614,0,20.1,
1535,SBT4050,1,5,4.2003,0.22016,0,20.1,
1535,SBT4050,1,5,4.20029,0.21244,0,20,
1535,SBT4050,1,5,4.2004,0.20522,0,20,
1535,SBT4050,1,5,4.20013,0.19938,0,20,
1535,SBT4050,1,5,4.20011,0.19484,0,20,
1535,SBT4050,1,5,4.20026,0.19087,0,20,
1535,SBT4050,1,5,4.20019,0.18626,0,20,
1535,SBT4050,1,5,4.20056,0.18085,0,19.9,
1535,SBT4050,1,5,4.20029,0.17559,0,20,
1535,SBT4050,1,5,4.20036,0.17029,0,20,
1535,SBT4050,1,5,4.20025,0.16537,0,20,
1535,SBT4050,1,5,4.20054,0.16026,0,19.9,
1535,SBT4050,1,5,4.20032,0.15574,0,19.9,
1535,SBT4050,1,5,4.20019,0.15156,0,19.9,
1535,SBT4050,1,5,4.20027,0.14765,0,19.9,
1535,SBT4050,1,5,4.20032,0.1444,0,20,
1535,SBT4050,1,5,4.200166,0.14073,0,19.9,
1535,SBT4050,1,5,4.20055,0.13717,0,20,
1535,SBT4050,1,5,4.200166,0.13412,0,19.9,
1535,SBT4050,1,5,4.2003,0.13061,0,20,
1535,SBT4050,1,5,4.200452,0.12693,0,20,
1535,SBT4050,1,5,4.20012,0.12433,0,20,
1535,SBT4050,1,5,4.200142,0.12147,0,19.9,
1535,SBT4050,1,5,4.20023,0.11924,0,19.9,
1535,SBT4050,1,5,4.20032,0.11617,0,20,
1535,SBT4050,1,5,4.20012,0.11377,0,20,
1535,SBT4050,1,5,4.200166,0.1115,0,20,
1535,SBT4050,1,5,4.20029,0.10897,0,20,
1535,SBT4050,1,5,4.20012,0.10702,0,20,
1535,SBT4050,1,5,4.200154,0.10488,0,20,
1535,SBT4050,1,5,4.20032,0.10226,0,20,
1535,SBT4050,1,5,4.20002,0.10053,0,20,
1535,SBT4050,1,5,4.19651,0,0,20,
1535,SBT4050,1,5,4.19588,0,0,20,
1535,SBT4050,1,5,4.19531,0,0,20,
1535,SBT4050,1,5,4.19477,0,0,20,
1535,SBT4050,1,5,4.19474,0,0,20,
1535,SBT4050,1,5,4.19425,0,0,19.9,
1535,SBT4050,1,5,4.1939,0,0,20,
1535,SBT4050,1,5,4.19344,0,0,20,
1535,SBT4050,1,5,4.1932,0,0,19.9,
1535,SBT4050,1,5,4.19312,0,0,19.9,
1535,SBT4050,1,5,4.19296,0,0,19.9,
1535,SBT4050,1,5,4.192554,0,0,19.9,
1535,SBT4050,1,5,4.19245,0,0,20,
1535,SBT4050,1,5,4.19216,0,0,20,
1535,SBT4050,1,5,4.19196,0,0,20,
1535,SBT4050,1,5,4.19209,0,0,20,
1535,SBT4050,1,5,4.19202,0,0,19.9,
1535,SBT4050,1,5,4.1917,0,0,19.9,
1535,SBT4050,1,5,4.19191,0,0,20,
1535,SBT4050,1,5,4.19143,0,0,19.9,
1535,SBT4050,1,5,4.19164,0,0,20,
1535,SBT4050,1,5,4.19088,0,0,20,
1535,SBT4050,1,5,4.19129,0,0,19.9,
1535,SBT4050,1,5,4.19086,0,0,20,
1535,SBT4050,1,5,4.19067,0,0,20,
1535,SBT4050,1,5,4.190742,0,0,20,
1535,SBT4050,1,5,4.19042,0,0,20,
1535,SBT4050,1,5,4.190326,0,0,19.9,
1535,SBT4050,1,5,4.1903,0,0,19.9,
1535,SBT4050,1,5,4.18999,0,0,20,
1535,SBT4050,1,5,4.19027,0,0,19.9,
1535,SBT4050,1,5,4.19013,0,0,20,
1535,SBT4050,1,5,4.19002,0,0,20,
1535,SBT4050,1,5,4.18994,0,0,19.9,
1535,SBT4050,1,5,4.18991,0,0,19.9,
1535,SBT4050,1,5,4.18969,0,0,20,
1535,SBT4050,1,5,4.189548,0,0,19.9,
1535,SBT4050,1,5,4.189388,0,0,19.9,
1535,SBT4050,1,5,4.18939,0,0,19.9,
1535,SBT4050,1,5,4.1893,0,0,19.9,
1535,SBT4050,1,5,4.18945,0,0,19.9,
1535,SBT4050,1,5,4.1892,0,0,19.9,
1535,SBT4050,1,5,4.18901,0,0,19.9,
1535,SBT4050,1,5,4.18925,0,0,19.9,
1535,SBT4050,1,5,4.188774,0,0,19.9,
1535,SBT4050,1,5,4.18888,0,0,19.9,
1535,SBT4050,1,5,4.1889,0,0,19.8,
1535,SBT4050,1,5,4.18879,0,0,19.9,
1535,SBT4050,1,5,4.18858,0,0,19.9,
1535,SBT4050,1,5,4.18825,0,0,19.9,
1535,SBT4050,1,5,4.18838,0,0,19.9,
1535,SBT4050,1,5,4.188418,0,0,19.8,
1535,SBT4050,1,5,4.18829,0,0,19.9,
1535,SBT4050,1,5,4.18821,0,0,19.8,
1535,SBT4050,1,5,4.18794,0,0,19.9,
1535,SBT4050,1,5,4.18807,0,0,20,
1535,SBT4050,1,5,4.187964,0,0,19.9,
1535,SBT4050,1,5,4.188,0,0,20,
1535,SBT4050,1,5,4.18801,0,0,19.9,
1535,SBT4050,1,5,4.18771,0,0,20,
1535,SBT4050,1,5,4.18786,0,0,20,
1535,SBT4050,1,5,4.18789,0,0,19.9,
1535,SBT4050,1,5,4.18789,0,0,19.9,
1535,SBT4050,1,5,4.187704,0,0,19.9,
1535,SBT4050,1,5,4.18759,0,0,19.9,
1535,SBT4050,1,5,4.187468,0,0,19.9,
1535,SBT4050,1,5,4.187456,0,0,19.9,
1535,SBT4050,1,5,4.18738,0,0,19.8,
1535,SBT4050,1,5,4.187498,0,0,19.9,
1535,SBT4050,1,5,4.18715,0,0,19.8,
1535,SBT4050,1,5,4.18719,0,0,19.8,
1535,SBT4050,1,5,4.187252,0,0,19.9,
1535,SBT4050,1,5,4.18697,0,0,19.8,
1535,SBT4050,1,5,4.18711,0,0,19.9,
1535,SBT4050,1,5,4.18686,0,0,19.9,
1535,SBT4050,1,5,4.18668,0,0,19.9,
1535,SBT4050,1,5,4.18683,0,0,19.9,
1535,SBT4050,1,5,4.18707,0,0,19.8,
1535,SBT4050,1,5,4.1867,0,0,19.9,
1535,SBT4050,1,5,4.18684,0,0,19.8,
1535,SBT4050,1,5,4.1869,0,0,19.9,
1535,SBT4050,1,5,4.18677,0,0,19.9,
1535,SBT4050,1,5,4.18691,0,0,19.8,
1535,SBT4050,1,5,4.18676,0,0,19.9,
1535,SBT4050,1,5,4.1867,0,0,19.9,
1535,SBT4050,1,5,4.18647,0,0,19.9,
1535,SBT4050,1,5,4.18668,0,0,19.9,
1535,SBT4050,1,5,4.186448,0,0,19.8,
1535,SBT4050,1,5,4.18655,0,0,19.9,
1535,SBT4050,1,5,4.186436,0,0,19.8,
1535,SBT4050,1,5,4.18648,0,0,19.8,
1535,SBT4050,1,5,4.18622,0,0,19.8,
1535,SBT4050,1,5,4.18638,0,0,19.9,
1535,SBT4050,1,5,4.18627,0,0,19.8,
1535,SBT4050,1,5,4.18617,0,0,19.9,
1535,SBT4050,1,5,4.18625,0,0,19.8,
1535,SBT4050,1,5,4.18615,0,0,19.9,
1535,SBT4050,1,5,4.18578,0,0,19.9,
1535,SBT4050,1,5,4.18615,0,0,19.8,
1535,SBT4050,1,5,4.18616,0,0,19.9,
1535,SBT4050,1,5,4.18577,0,0,19.9,
1535,SBT4050,1,5,4.18608,0,0,19.8,
1535,SBT4050,1,5,4.1861,0,0,19.9,
1535,SBT4050,1,5,4.18578,0,0,19.9,
1535,SBT4050,1,5,4.18585,0,0,19.9,
1535,SBT4050,1,5,4.18604,0,0,19.9,
1535,SBT4050,1,5,4.18573,0,0,20,
1535,SBT4050,1,5,4.18581,0,0,19.9,
1535,SBT4050,1,5,4.18585,0,0,19.9,
1535,SBT4050,1,5,4.18558,0,0,19.9,
1535,SBT4050,1,5,4.18584,0,0,19.9,
1535,SBT4050,1,5,4.1855,0,0,20,
1535,SBT4050,1,5,4.18573,0,0,19.9,
1535,SBT4050,1,5,4.18555,0,0,19.9,
1535,SBT4050,1,5,4.185718,0,0,19.9,
1535,SBT4050,1,5,4.18561,0,0,19.9,
1535,SBT4050,1,5,4.18555,0,0,19.9,
1535,SBT4050,1,5,4.18566,0,0,19.9,
1535,SBT4050,1,5,4.18549,0,0,19.9,
1535,SBT4050,1,5,4.18551,0,0,19.9,
1535,SBT4050,1,5,4.185426,0,0,19.9,
1535,SBT4050,1,5,4.18566,0,0,19.9,
1535,SBT4050,1,5,4.1852,0,0,19.9,
1535,SBT4050,1,5,4.18522,0,0,19.9,
1535,SBT4050,1,5,4.1849,0,0,19.9,
1535,SBT4050,1,5,4.18515,0,0,19.9,
1535,SBT4050,1,5,4.1849,0,0,20,
1535,SBT4050,1,5,4.185288,0,0,19.9,
1535,SBT4050,1,5,4.18479,0,0,20,
1535,SBT4050,1,5,4.18501,0,0,20,
1535,SBT4050,1,5,4.185022,0,0,19.9,
1535,SBT4050,1,5,4.184974,0,0,20,
1535,SBT4050,1,5,4.18488,0,0,20,
1535,SBT4050,1,5,4.185124,0,0,19.9,
1535,SBT4050,1,5,4.18479,0,0,19.9,
1535,SBT4050,1,5,4.18486,0,0,20,
1535,SBT4050,1,5,4.18484,0,0,19.9,
1535,SBT4050,1,5,4.1847,0,0,19.9,
1535,SBT4050,1,5,4.18469,0,0,19.9,
1535,SBT4050,1,5,4.18455,0,0,19.9,
1535,SBT4050,1,5,4.1846,0,0,19.9,
1535,SBT4050,1,5,4.18467,0,0,19.9,
1535,SBT4050,1,5,4.18467,0,0,19.9,
1535,SBT4050,1,5,4.18462,0,0,19.9,
1535,SBT4050,1,5,4.184584,0,0,19.9,
1535,SBT4050,1,5,4.1844,0,0,20,
1535,SBT4050,1,5,4.18461,0,0,19.9,
1535,SBT4050,1,5,4.184446,0,0,19.9,
1535,SBT4050,1,5,4.18468,0,0,19.9,
1535,SBT4050,1,5,4.18457,0,0,19.9,
1535,SBT4050,1,5,4.18458,0,0,19.8,
1535,SBT4050,1,5,4.18452,0,0,19.9,
1535,SBT4050,1,5,4.18463,0,0,19.8,
1535,SBT4050,1,5,4.18445,0,0,19.8,
1535,SBT4050,1,5,4.18434,0,0,19.9,
1535,SBT4050,1,5,4.18442,0,0,19.8,
1535,SBT4050,1,5,4.1844,0,0,19.9,
1535,SBT4050,1,5,4.18411,0,0,19.8,
1535,SBT4050,1,5,4.18432,0,0,19.8,
1535,SBT4050,1,5,4.18467,0,0,19.8,
1535,SBT4050,1,5,4.18422,0,0,19.8,
1535,SBT4050,1,5,4.18413,0,0,19.8,
1535,SBT4050,1,5,4.18439,0,0,19.8,
1535,SBT4050,1,5,4.184,0,0,19.8,
1535,SBT4050,1,5,4.1843,0,0,19.8,
1535,SBT4050,1,5,4.184062,0,0,19.8,
1535,SBT4050,1,5,4.18395,0,0,19.8,
1535,SBT4050,1,5,4.18403,0,0,19.8,
1535,SBT4050,1,5,4.184176,0,0,19.8,
1535,SBT4050,1,5,4.18401,0,0,19.8,
1535,SBT4050,1,5,4.184076,0,0,19.8,
1535,SBT4050,1,5,4.18405,0,0,19.7,
1535,SBT4050,1,5,4.18387,0,0,19.8,
1535,SBT4050,1,5,4.1841,0,0,19.7,
1535,SBT4050,1,5,4.18402,0,0,19.8,
1535,SBT4050,1,5,4.1839,0,0,19.8,
1535,SBT4050,1,5,4.18376,0,0,19.7,
1535,SBT4050,1,5,4.18377,0,0,19.8,
1535,SBT4050,1,5,4.18382,0,0,19.8,
1535,SBT4050,1,5,4.18379,0,0,19.7,
1535,SBT4050,1,5,4.18381,0,0,19.7,
1535,SBT4050,1,5,4.18346,0,0,19.7,
1535,SBT4050,1,5,4.1838,0,0,19.7,
1535,SBT4050,1,5,4.183768,0,0,19.7,
1535,SBT4050,1,5,4.18391,0,0,19.7,
1535,SBT4050,1,5,4.18371,0,0,19.7,
1535,SBT4050,1,5,4.18387,0,0,19.7,
1535,SBT4050,1,5,4.183964,0,0,19.7,
1535,SBT4050,1,5,4.1837,0,0,19.7,
1535,SBT4050,1,5,4.18405,0,0,19.7,
1535,SBT4050,1,5,4.183952,0,0,19.6,
1535,SBT4050,1,5,4.18381,0,0,19.6,
1535,SBT4050,1,5,4.18381,0,0,19.7,
1535,SBT4050,1,5,4.18376,0,0,19.7,
1535,SBT4050,1,5,4.183674,0,0,19.7,
1535,SBT4050,1,5,4.18355,0,0,19.6,
1535,SBT4050,1,5,4.18341,0,0,19.6,
1535,SBT4050,1,5,4.18363,0,0,19.7,
1535,SBT4050,1,5,4.183458,0,0,19.7,
1535,SBT4050,1,5,4.18342,0,0,19.7,
1535,SBT4050,1,5,4.1835,0,0,19.7,
1535,SBT4050,1,5,4.18348,0,0,19.7,
1535,SBT4050,1,5,4.18349,0,0,19.7,
1535,SBT4050,1,5,4.18345,0,0,19.7,
1535,SBT4050,1,5,4.183394,0,0,19.6,
1535,SBT4050,1,5,4.18342,0,0,19.7,
1535,SBT4050,1,5,4.18364,0,0,19.6,
1535,SBT4050,1,5,4.18349,0,0,19.6,
1535,SBT4050,1,5,4.18352,0,0,19.7,
1535,SBT4050,1,5,4.18346,0,0,19.6,
1535,SBT4050,1,5,4.183352,0,0,19.7,
1535,SBT4050,1,5,4.18361,0,0,19.6,
1535,SBT4050,1,5,4.18344,0,0,19.7,
1535,SBT4050,1,5,4.183274,0,0,19.6,
1535,SBT4050,1,5,4.183222,0,0,19.7,
1535,SBT4050,1,5,4.18351,0,0,19.7,
1535,SBT4050,1,5,4.18328,0,0,19.7,
1535,SBT4050,1,5,4.18359,0,0,19.7,
1535,SBT4050,1,5,4.18317,0,0,19.6,
1535,SBT4050,1,5,4.18306,0,0,19.7,
1535,SBT4050,1,5,4.183016,0,0,19.6,
1535,SBT4050,1,5,4.18303,0,0,19.7,
1535,SBT4050,1,5,4.18329,0,0,19.7,
1535,SBT4050,1,5,4.18326,0,0,19.6,
1535,SBT4050,1,5,4.18318,0,0,19.6,
1535,SBT4050,1,5,4.18302,0,0,19.6,
1535,SBT4050,1,5,4.18336,0,0,19.6,
1535,SBT4050,1,5,4.18327,0,0,19.6,
1535,SBT4050,1,5,4.18352,0,0,19.5,
1535,SBT4050,1,5,4.18316,0,0,19.6,
1535,SBT4050,1,5,4.18302,0,0,19.5,
1535,SBT4050,1,5,4.18302,0,0,19.6,
1535,SBT4050,1,5,4.183188,0,0,19.5,
1535,SBT4050,1,5,4.18314,0,0,19.6,
1535,SBT4050,1,5,4.18302,0,0,19.6,
1535,SBT4050,1,5,4.18304,0,0,19.6,
1535,SBT4050,1,5,4.18318,0,0,19.5,
1535,SBT4050,1,5,4.18295,0,0,19.5,
1535,SBT4050,1,5,4.18296,0,0,19.5,
1535,SBT4050,1,5,4.182894,0,0,19.5,
1535,SBT4050,1,5,4.18278,0,0,19.5,
1535,SBT4050,1,5,4.18285,0,0,19.5,
1535,SBT4050,1,5,4.18258,0,0,19.5,
1535,SBT4050,1,5,4.18243,0,0,19.5,
1535,SBT4050,1,5,4.18283,0,0,19.5,
1535,SBT4050,1,5,4.182688,0,0,19.5,
1535,SBT4050,1,5,4.182776,0,0,19.5,
1535,SBT4050,1,5,4.1825,0,0,19.5,
1535,SBT4050,1,5,4.18266,0,0,19.4,
1535,SBT4050,1,5,4.18269,0,0,19.5,
1535,SBT4050,1,5,4.1828,0,0,19.5,
1535,SBT4050,1,5,4.18269,0,0,19.5,
1535,SBT4050,1,5,4.18279,0,0,19.5,
1535,SBT4050,1,5,4.1827,0,0,19.4,
1535,SBT4050,1,5,4.18274,0,0,19.4,
1535,SBT4050,1,5,4.18261,0,0,19.4,
1535,SBT4050,1,5,4.18263,0,0,19.4,
1535,SBT4050,1,5,4.182526,0,0,19.4,
1535,SBT4050,1,5,4.18255,0,0,19.4,
1535,SBT4050,1,5,4.18239,0,0,19.4,
1535,SBT4050,1,5,4.18254,0,0,19.4,
1535,SBT4050,1,5,4.18255,0,0,19.4,
1535,SBT4050,1,5,4.18251,0,0,19.3,
1535,SBT4050,1,5,4.182312,0,0,19.4,
1535,SBT4050,1,5,4.18243,0,0,19.4,
1535,SBT4050,1,5,4.18264,0,0,19.4,
1535,SBT4050,1,5,4.18248,0,0,19.4,
1535,SBT4050,1,5,4.18272,0,0,19.4,
1535,SBT4050,1,5,4.182722,0,0,19.3,
1535,SBT4050,1,5,4.18238,0,0,19.3,
1535,SBT4050,1,5,4.182406,0,0,19.3,
1535,SBT4050,1,5,4.18249,0,0,19.3,
1535,SBT4050,1,5,4.18263,0,0,19.3,
1535,SBT4050,1,5,4.18254,0,0,19.3,
1535,SBT4050,1,5,4.18245,0,0,19.3,
1535,SBT4050,1,5,4.18239,0,0,19.4,
1535,SBT4050,1,5,4.18236,0,0,19.3,
1535,SBT4050,1,5,4.1823,0,0,19.3,
1535,SBT4050,1,5,4.1825,0,0,19.3,
1535,SBT4050,1,5,4.18253,0,0,19.2,
1535,SBT4050,1,5,4.18229,0,0,19.3,
1535,SBT4050,1,5,4.18239,0,0,19.2,
1535,SBT4050,1,5,4.18228,0,0,19.3,
1535,SBT4050,1,5,4.18224,0,0,19.3,
1535,SBT4050,1,5,4.18233,0,0,19.2,
1535,SBT4050,1,5,4.18201,0,0,19.3,
1535,SBT4050,1,5,4.18198,0,0,19.3,
1535,SBT4050,1,5,4.182132,0,0,19.3,
1535,SBT4050,1,5,4.18202,0,0,19.3,
1535,SBT4050,1,5,4.18215,0,0,19.3,
1535,SBT4050,1,5,4.18224,0,0,19.3,
1535,SBT4050,1,5,4.182096,0,0,19.3,
1535,SBT4050,1,5,4.18203,0,0,19.3,
1535,SBT4050,1,5,4.18218,0,0,19.3,
1535,SBT4050,1,5,4.18182,0,0,19.2,
1535,SBT4050,1,5,4.18205,0,0,19.4,
1535,SBT4050,1,5,4.1821,0,0,19.3,
1535,SBT4050,1,5,4.18206,0,0,19.3,
1535,SBT4050,1,5,4.18188,0,0,19.3,
1535,SBT4050,1,5,4.18214,0,0,19.3,
1535,SBT4050,1,5,4.18199,0,0,19.3,
1535,SBT4050,1,5,4.181832,0,0,19.3,
1535,SBT4050,1,5,4.18202,0,0,19.4,
1535,SBT4050,1,5,4.18205,0,0,19.3,
1535,SBT4050,1,5,4.18216,0,0,19.3,
1535,SBT4050,1,5,4.181916,0,0,19.3,
1535,SBT4050,1,5,4.18201,0,0,19.2,
1535,SBT4050,1,5,4.18215,0,0,19.3,
1535,SBT4050,1,5,4.18196,0,0,19.2,
1535,SBT4050,1,5,4.18178,0,0,19.2,
1535,SBT4050,1,5,4.18206,0,0,19.3,
1535,SBT4050,1,5,4.18212,0,0,19.2,
1535,SBT4050,1,5,4.1819,0,0,19.3,
1535,SBT4050,1,5,4.1822,0,0,19.3,
1535,SBT4050,1,5,4.181876,0,0,19.3,
1535,SBT4050,1,5,4.18182,0,0,19.3,
1535,SBT4050,1,5,4.181918,0,0,19.2,
1535,SBT4050,1,5,4.181882,0,0,19.3,
1535,SBT4050,1,5,4.181974,0,0,19.4,
1535,SBT4050,1,5,4.18194,0,0,19.4,
1535,SBT4050,1,5,4.18216,0,0,19.4,
1535,SBT4050,1,5,4.18181,0,0,19.3,
1535,SBT4050,1,5,4.18193,0,0,19.4,
1535,SBT4050,1,5,4.18178,0,0,19.3,
1535,SBT4050,1,5,4.18173,0,0,19.4,
1535,SBT4050,1,5,4.181578,0,0,19.3,
1535,SBT4050,1,5,4.18186,0,0,19.4,
1535,SBT4050,1,5,4.18203,0,0,19.4,
1535,SBT4050,1,5,4.18178,0,0,19.4,
1535,SBT4050,1,5,4.18173,0,0,19.4,
1535,SBT4050,1,5,4.18167,0,0,19.3,
1535,SBT4050,1,5,4.181702,0,0,19.3,
1535,SBT4050,1,5,4.18193,0,0,19.4,
1535,SBT4050,1,5,4.18182,0,0,19.4,
1535,SBT4050,1,5,4.18168,0,0,19.4,
1535,SBT4050,1,5,4.18165,0,0,19.4,
1535,SBT4050,1,5,4.18168,0,0,19.3,
1535,SBT4050,1,5,4.18181,0,0,19.4,
1535,SBT4050,1,5,4.181566,0,0,19.4,
1535,SBT4050,1,5,4.18157,0,0,19.4,
1535,SBT4050,1,5,4.18178,0,0,19.4,
1535,SBT4050,1,5,4.18159,0,0,19.4,
1535,SBT4050,1,5,4.181362,0,0,19.4,
1535,SBT4050,1,5,4.18149,0,0,19.4,
1535,SBT4050,1,5,4.18141,0,0,19.5,
1535,SBT4050,1,5,4.18139,0,0,19.5,
1535,SBT4050,1,5,4.18155,0,0,19.4,
1535,SBT4050,1,5,4.18151,0,0,19.5,
1535,SBT4050,1,5,4.181428,0,0,19.5,
1535,SBT4050,1,5,4.18172,0,0,19.4,
1535,SBT4050,1,5,4.18156,0,0,19.4,
1535,SBT4050,1,5,4.18158,0,0,19.4,
1535,SBT4050,1,5,4.1817,0,0,19.4,
1535,SBT4050,1,5,4.181614,0,0,19.4,
1535,SBT4050,1,5,4.181626,0,0,19.4,
1535,SBT4050,1,5,4.1815,0,0,19.4,
1535,SBT4050,1,5,4.18153,0,0,19.4,
1535,SBT4050,1,5,4.18167,0,0,19.5,
1535,SBT4050,1,5,4.18161,0,0,19.4,
1535,SBT4050,1,5,4.18154,0,0,19.4,
1535,SBT4050,1,5,4.181338,0,0,19.4,
1535,SBT4050,1,5,4.18161,0,0,19.5,
1535,SBT4050,1,5,4.18146,0,0,19.4,
1535,SBT4050,1,5,4.18157,0,0,19.5,
1535,SBT4050,1,5,4.181592,0,0,19.5,
1535,SBT4050,1,5,4.18151,0,0,19.5,
1535,SBT4050,1,5,4.18155,0,0,19.5,
1535,SBT4050,1,5,4.1816,0,0,19.4,
1535,SBT4050,1,5,4.18151,0,0,19.5,
1535,SBT4050,1,5,4.181492,0,0,19.4,
1535,SBT4050,1,5,4.18125,0,0,19.4,
1535,SBT4050,1,5,4.18138,0,0,19.5,
1535,SBT4050,1,5,4.18145,0,0,19.5,
1535,SBT4050,1,5,4.18126,0,0,19.4,
1535,SBT4050,1,5,4.181604,0,0,19.4,
1535,SBT4050,1,5,4.18127,0,0,19.5,
1535,SBT4050,1,5,4.18129,0,0,19.5,
1535,SBT4050,1,5,4.18141,0,0,19.5,
1535,SBT4050,1,5,4.18138,0,0,19.5,
1535,SBT4050,1,5,4.18139,0,0,19.5,
1535,SBT4050,1,5,4.1811,0,0,19.5,
1535,SBT4050,1,5,4.18119,0,0,19.6,
1535,SBT4050,1,5,4.18139,0,0,19.5,
1535,SBT4050,1,5,4.18132,0,0,19.6,
1535,SBT4050,1,5,4.1813,0,0,19.5,
1535,SBT4050,1,5,4.18119,0,0,19.5,
1535,SBT4050,1,5,4.18138,0,0,19.6,
1535,SBT4050,1,5,4.181318,0,0,19.5,
1535,SBT4050,1,5,4.18132,0,0,19.5,
1535,SBT4050,1,5,4.18131,0,0,19.5,
1535,SBT4050,1,5,4.18153,0,0,19.5,
1535,SBT4050,1,5,4.181094,0,0,19.6,
1535,SBT4050,1,5,4.18136,0,0,19.5,
1535,SBT4050,1,5,4.18128,0,0,19.5,
1535,SBT4050,1,5,4.18131,0,0,19.6,
1535,SBT4050,1,5,4.18139,0,0,19.6,
1535,SBT4050,1,5,4.18116,0,0,19.7,
1535,SBT4050,1,5,4.18119,0,0,19.6,
1535,SBT4050,1,5,4.181146,0,0,19.6,
1535,SBT4050,1,5,4.18106,0,0,19.6,
1535,SBT4050,1,5,4.18104,0,0,19.6,
1535,SBT4050,1,5,4.18111,0,0,19.5,
1535,SBT4050,1,5,4.18113,0,0,19.5,
1535,SBT4050,1,5,4.18089,0,0,19.6,
1535,SBT4050,1,5,4.181252,0,0,19.5,
1535,SBT4050,1,5,4.18116,0,0,19.6,
1535,SBT4050,1,5,4.18125,0,0,19.5,
1535,SBT4050,1,5,4.18111,0,0,19.5,
1535,SBT4050,1,5,4.18113,0,0,19.6,
1535,SBT4050,1,5,4.18093,0,0,19.5,
1535,SBT4050,1,5,4.18088,0,0,19.6,
1535,SBT4050,1,5,4.181006,0,0,19.5,
1535,SBT4050,1,5,4.18109,0,0,19.5,
1535,SBT4050,1,5,4.18111,0,0,19.6,
1535,SBT4050,1,5,4.18098,0,0,19.5,
1535,SBT4050,1,5,4.18114,0,0,19.5,
1535,SBT4050,1,5,4.18088,0,0,19.6,
1535,SBT4050,1,5,4.181172,0,0,19.5,
1535,SBT4050,1,5,4.1808,0,0,19.5,
1535,SBT4050,1,5,4.18122,0,0,19.6,
1535,SBT4050,1,5,4.181056,0,0,19.5,
1535,SBT4050,1,5,4.18104,0,0,19.5,
1535,SBT4050,1,5,4.1809,0,0,19.6,
1535,SBT4050,1,5,4.18107,0,0,19.6,
1535,SBT4050,1,5,4.18094,0,0,19.6,
1535,SBT4050,1,5,4.18092,0,0,19.6,
1535,SBT4050,1,5,4.180962,0,0,19.5,
1535,SBT4050,1,5,4.18107,0,0,19.5,
1535,SBT4050,1,5,4.18115,0,0,19.6,
1535,SBT4050,1,5,4.18091,0,0,19.5,
1535,SBT4050,1,5,4.18084,0,0,19.5,
1535,SBT4050,1,5,4.1807,0,0,19.6,
1535,SBT4050,1,5,4.18094,0,0,19.6,
1535,SBT4050,1,5,4.18079,0,0,19.6,
1535,SBT4050,1,5,4.18073,0,0,19.6,
1535,SBT4050,1,5,4.18051,0,0,19.6,
1535,SBT4050,1,5,4.18055,0,0,19.5,
1535,SBT4050,1,5,4.18069,0,0,19.6,
1535,SBT4050,1,5,4.180614,0,0,19.7,
1535,SBT4050,1,5,4.18058,0,0,19.6,
1535,SBT4050,1,5,4.18102,0,0,19.6,
1535,SBT4050,1,5,4.18058,0,0,19.6,
1535,SBT4050,1,5,4.180766,0,0,19.7,
1535,SBT4050,1,5,4.18078,0,0,19.7,
1535,SBT4050,1,5,4.1809,0,0,19.6,
1535,SBT4050,1,5,4.180564,0,0,19.5,
1535,SBT4050,1,5,4.181022,0,0,19.6,
1535,SBT4050,1,5,4.180924,0,0,19.5,
1535,SBT4050,1,5,4.180716,0,0,19.5,
1535,SBT4050,1,5,4.180438,0,0,19.6,
1535,SBT4050,1,5,4.18081,0,0,19.6,
1535,SBT4050,1,5,4.18064,0,0,19.5,
1535,SBT4050,1,5,4.18071,0,0,19.6,
1535,SBT4050,1,5,4.18064,0,0,19.6,
1535,SBT4050,1,5,4.18055,0,0,19.6,
1535,SBT4050,1,5,4.18059,0,0,19.6,
1535,SBT4050,1,5,4.18041,0,0,19.6,
1535,SBT4050,1,5,4.18053,0,0,19.5,
1535,SBT4050,1,5,4.18044,0,0,19.5,
1535,SBT4050,1,5,4.18079,0,0,19.6,
1535,SBT4050,1,5,4.18087,0,0,19.6,
1535,SBT4050,1,5,4.18058,0,0,19.5,
1535,SBT4050,1,5,4.18068,0,0,19.6,
1535,SBT4050,1,5,4.180378,0,0,19.6,
1535,SBT4050,1,5,4.18075,0,0,19.5,
1535,SBT4050,1,5,4.18056,0,0,19.7,
1535,SBT4050,1,5,4.1806,0,0,19.6,
1535,SBT4050,1,5,4.18089,0,0,19.6,
1535,SBT4050,1,5,4.18085,0,0,19.6,
1535,SBT4050,1,5,4.18062,0,0,19.5,
1535,SBT4050,1,5,4.18083,0,0,19.6,
1535,SBT4050,1,5,4.18048,0,0,19.6,
1535,SBT4050,1,5,4.18048,0,0,19.6,
1535,SBT4050,1,5,4.180712,0,0,19.6,
1535,SBT4050,1,5,4.18061,0,0,19.6,
1535,SBT4050,1,5,4.18026,0,0,19.6,
1535,SBT4050,1,5,4.180476,0,0,19.6,
1535,SBT4050,1,5,4.180372,0,0,19.6,
1535,SBT4050,1,5,4.18062,0,0,19.6,
1535,SBT4050,1,5,4.18071,0,0,19.6,
1535,SBT4050,1,5,4.180528,0,0,19.7,
1535,SBT4050,1,5,4.18051,0,0,19.6,
1535,SBT4050,1,5,4.18038,0,0,19.6,
1535,SBT4050,1,5,4.18035,0,0,19.6,
1535,SBT4050,1,5,4.18062,0,0,19.6,
1535,SBT4050,1,5,4.18042,0,0,19.6,
1535,SBT4050,1,5,4.18063,0,0,19.6,
1535,SBT4050,1,5,4.18047,0,0,19.7,
1535,SBT4050,1,5,4.1806,0,0,19.7,
1535,SBT4050,1,5,4.18052,0,0,19.6,
1535,SBT4050,1,5,4.18067,0,0,19.6,
1535,SBT4050,1,5,4.18049,0,0,19.6,
1535,SBT4050,1,5,4.18032,0,0,19.6,
1535,SBT4050,1,5,4.18058,0,0,19.6,
1535,SBT4050,1,5,4.1805,0,0,19.5,
1535,SBT4050,1,5,4.18053,0,0,19.6,
1535,SBT4050,1,5,4.18025,0,0,19.6,
1535,SBT4050,1,5,4.180496,0,0,19.5,
1535,SBT4050,1,5,4.18072,0,0,19.6,
1535,SBT4050,1,5,4.180474,0,0,19.6,
1535,SBT4050,1,5,4.18052,0,0,19.5,
1535,SBT4050,1,5,4.18029,0,0,19.5,
1535,SBT4050,1,5,4.18032,0,0,19.6,
1535,SBT4050,1,5,4.18041,0,0,19.6,
1535,SBT4050,1,5,4.18053,0,0,19.6,
1535,SBT4050,1,5,4.1805,0,0,19.6,
1535,SBT4050,1,5,4.18037,0,0,19.7,
1535,SBT4050,1,5,4.1803,0,0,19.7,
1535,SBT4050,1,5,4.18046,0,0,19.6,
1535,SBT4050,1,5,4.1803,0,0,19.6,
1535,SBT4050,1,5,4.18025,0,0,19.6,
1535,SBT4050,1,5,4.18044,0,0,19.6,
1535,SBT4050,1,5,4.18018,0,0,19.6,
1535,SBT4050,1,5,4.18022,0,0,19.6,
1535,SBT4050,1,5,4.1809,0.011999,0.008,19.6,
1535,SBT4050,1,5,4.18763,0.18699,0.008,19.6,
1535,SBT4050,1,5,4.18721,0.13798,0.008,19.6,
1535,SBT4050,1,5,4.187044,0.044997,0.008,19.6,
1535,SBT4050,1,5,4.19043,0.207,0.012,19.7,
1535,SBT4050,1,5,4.10112,-2.7811,1.284,19.7,
1535,SBT4050,1,5,3.9455,-6.973,12.723,19.5,
1535,SBT4050,1,5,3.922,-6.835,25.063,19.6,
1535,SBT4050,1,5,4.072,-0.7009,33.68,19.7,
1535,SBT4050,1,5,4.116076,-0.27899,33.866,19.8,
1535,SBT4050,1,5,3.86765,-8.363,45.958,19.8,
1535,SBT4050,1,5,4.11178,1.7029,54.844,19.8,
1535,SBT4050,1,5,3.94182,-6.013,57.185,19.9,
1535,SBT4050,1,5,3.84071,-7.855,74.982,19.9,
1535,SBT4050,1,5,3.864842,-6.207,88.696,20,
1535,SBT4050,1,5,3.96654,-1.8999,98.139,20.2,
1535,SBT4050,1,5,4.12937,3.5457,99.114,20.3,
1535,SBT4050,1,5,3.98234,-3.6299,100.02,20.4,
1535,SBT4050,1,5,3.761166,-10.178,118.282,20.3,
1535,SBT4050,1,5,3.75344,-9.164,137.173,20.5,
1535,SBT4050,1,5,3.95008,-0.4789,149.708,20.6,
1535,SBT4050,1,5,3.96165,-2.1016,150.43,20.8,
1535,SBT4050,1,5,3.76508,-9.528,160.81,20.8,
1535,SBT4050,1,5,3.94216,-1.0879,172.325,20.9,
1535,SBT4050,1,5,4.10941,4.0002,172.54,20.9,
1535,SBT4050,1,5,4.13348,4.0005,172.54,21,
1535,SBT4050,1,5,4.05746,-0.035993,172.546,20.9,
1535,SBT4050,1,5,4.05286,-0.015,172.649,21,
1535,SBT4050,1,5,4.05346,-0.002,172.675,20.9,
1535,SBT4050,1,5,4.03506,-0.8101,172.839,20.8,
1535,SBT4050,1,5,3.66322,-14.5,187.763,20.9,
1535,SBT4050,1,5,3.68179,-11.176,213.106,20.8,
1535,SBT4050,1,5,4.01835,2.766,221.007,20.9,
1535,SBT4050,1,5,4.08849,4.0003,221.007,21.1,
1535,SBT4050,1,5,3.91779,-3.8842,223.416,21.3,
1535,SBT4050,1,5,3.98971,0.17202,230.861,21.4,
1535,SBT4050,1,5,4.1014,2.9422,230.861,21.3,
1535,SBT4050,1,5,4.032876,-0.011999,230.903,21.2,
1535,SBT4050,1,5,4.034698,-0.007998,230.919,21.2,
1535,SBT4050,1,5,4.03677,-0.015002,230.932,21.1,
1535,SBT4050,1,5,3.81035,-9.182,234.981,21.2,
1535,SBT4050,1,5,3.60973,-14.501,262.153,21.1,
1535,SBT4050,1,5,3.76835,-6.25,283.003,21.1,
1535,SBT4050,1,5,3.67021,-10.526,298.079,21.3,
1535,SBT4050,1,5,3.69303,-8.983,314.593,21.6,
1535,SBT4050,1,5,3.66287,-9.382,334.66,21.8,
1535,SBT4050,1,5,3.834834,-2.1859,344.522,21.9,
1535,SBT4050,1,5,3.94327,1.5719,346.333,22.1,
1535,SBT4050,1,5,4.03841,3.9994,346.333,22.1,
1535,SBT4050,1,5,4.05515,3.3746,346.333,22.1,
1535,SBT4050,1,5,3.981298,-0.07198,346.387,22,
1535,SBT4050,1,5,3.98289,-0.06499,346.513,21.9,
1535,SBT4050,1,5,3.985528,-0.07801,346.63,21.9,
1535,SBT4050,1,5,3.76873,-8.682,354.418,21.8,
1535,SBT4050,1,5,3.74498,-7.641,372.947,21.7,
1535,SBT4050,1,5,3.78488,-5.776,382.917,21.7,
1535,SBT4050,1,5,3.76117,-6.337,394.459,21.8,
1535,SBT4050,1,5,3.80632,-4.0541,404.24,21.9,
1535,SBT4050,1,5,3.791552,-4.5109,413.527,21.9,
1535,SBT4050,1,5,3.89835,-0.22297,417.552,21.8,
1535,SBT4050,1,5,3.93125,0.47796,417.835,21.8,
1535,SBT4050,1,5,4.04303,4,417.835,21.8,
1535,SBT4050,1,5,3.72971,-8.643,428.73,21.8,
1535,SBT4050,1,5,3.74663,-6.373,443.953,21.6,
1535,SBT4050,1,5,3.82423,-2.6967,452.905,21.6,
1535,SBT4050,1,5,3.85908,-1.9213,455.351,21.7,
1535,SBT4050,1,5,3.77625,-4.973,464.174,21.7,
1535,SBT4050,1,5,3.79202,-4.1111,471.7,21.9,
1535,SBT4050,1,5,3.813258,-3.0758,478.303,21.8,
1535,SBT4050,1,5,3.85704,-1.6738,480.789,21.8,
1535,SBT4050,1,5,3.73724,-6.305,489.874,21.8,
1535,SBT4050,1,5,3.78844,-3.849,496.97,21.7,
1535,SBT4050,1,5,3.91449,1.2431,499.716,21.8,
1535,SBT4050,1,5,3.95401,1.474,499.716,21.7,
1535,SBT4050,1,5,3.92117,-0.058,499.784,21.7,
1535,SBT4050,1,5,3.92378,-0.067,499.9,21.5,
1535,SBT4050,1,5,3.917264,-0.5019,500.105,21.4,
1535,SBT4050,1,5,3.82869,-3.6712,505.607,21.4,
1535,SBT4050,1,5,3.73954,-6.602,515.789,21.3,
1535,SBT4050,1,5,3.77166,-4.3142,526.991,21.2,
1535,SBT4050,1,5,3.78146,-3.8163,534.354,21.3,
1535,SBT4050,1,5,3.76479,-4.2508,542.661,21.3,
1535,SBT4050,1,5,3.76178,-4.0738,551.17,21.2,
1535,SBT4050,1,5,3.8119,-1.4909,559.507,21.3,
1535,SBT4050,1,5,3.89248,0.5389,559.664,21.3,
1535,SBT4050,1,5,3.88791,-0.027999,559.711,21.2,
1535,SBT4050,1,5,3.894428,-0.016001,559.747,21.1,
1535,SBT4050,1,5,3.89966,-0.016998,559.783,21,
1535,SBT4050,1,5,3.89714,-0.29297,559.965,21.1,
1535,SBT4050,1,5,3.90608,-0.022002,560.261,21.2,
1535,SBT4050,1,5,3.88161,-1.2162,560.711,21.1,
1535,SBT4050,1,5,3.73115,-6.679,568.951,21.1,
1535,SBT4050,1,5,3.71599,-6.038,582.126,21.1,
1535,SBT4050,1,5,3.69742,-6.028,594.974,21.1,
1535,SBT4050,1,5,3.88813,1.7699,598.558,21,
1535,SBT4050,1,5,3.709106,-6.863,602.259,21.1,
1535,SBT4050,1,5,3.68146,-6.25,617.753,21.1,
1535,SBT4050,1,5,3.921772,3.1683,620.528,21.1,
1535,SBT4050,1,5,3.58044,-11.356,630.749,21.2,
1535,SBT4050,1,5,3.61262,-8.278,649.577,21.3,
1535,SBT4050,1,5,3.66075,-5.84,662.545,21.3,
1535,SBT4050,1,5,3.79336,-0.4729,668.054,21.4,
1535,SBT4050,1,5,3.928788,3.9996,668.106,21.5,
1535,SBT4050,1,5,3.59805,-10.776,675.15,21.3,
1535,SBT4050,1,5,3.53345,-11.098,697.973,21.3,
1535,SBT4050,1,5,3.5774,-8.152,717.302,21.5,
1535,SBT4050,1,5,3.87086,3.9993,722.908,21.6,
1535,SBT4050,1,5,3.72115,-3.9737,725.742,21.7,
1535,SBT4050,1,5,3.61325,-7.347,740.581,21.9,
1535,SBT4050,1,5,3.85899,3.2824,745.041,21.7,
1535,SBT4050,1,5,3.82988,0.16998,745.041,21.8,
1535,SBT4050,1,5,3.9348,4.0003,745.041,21.9,
1535,SBT4050,1,5,3.84954,-0.10199,745.136,21.8,
1535,SBT4050,1,5,3.8497,-0.06798,745.275,21.8,
1535,SBT4050,1,5,3.85143,-0.05799,745.401,21.8,
1535,SBT4050,1,5,3.68372,-7.323,749.561,21.8,
1535,SBT4050,1,5,3.456872,-14.501,775.111,21.7,
1535,SBT4050,1,5,3.60945,-5.947,796.584,21.8,
1535,SBT4050,1,5,3.83429,2.2901,798.366,21.9,
1535,SBT4050,1,5,3.82362,0.358,798.366,22,
1535,SBT4050,1,5,3.69687,-4.8986,804.376,21.9,
1535,SBT4050,1,5,3.89498,3.999,808.386,21.9,
1535,SBT4050,1,5,3.83211,-0.12297,808.408,21.9,
1535,SBT4050,1,5,3.832782,-0.05899,808.539,21.9,
1535,SBT4050,1,5,3.83493,-0.062,808.656,21.9,
1535,SBT4050,1,5,3.83682,-0.072,808.783,21.8,
1535,SBT4050,1,5,3.47965,-14.499,823.449,21.6,
1535,SBT4050,1,5,3.4487,-12.943,851.373,21.5,
1535,SBT4050,1,5,3.57241,-7.091,867.644,21.8,
1535,SBT4050,1,5,3.5334,-8.135,885.594,22,
1535,SBT4050,1,5,3.45205,-11.577,902.981,22.3,
1535,SBT4050,1,5,3.52372,-7.551,921.029,22.4,
1535,SBT4050,1,5,3.681804,-1.2379,926.968,22.6,
1535,SBT4050,1,5,3.82698,4.0004,927.356,22.7,
1535,SBT4050,1,5,3.86323,3.9998,927.356,22.6,
1535,SBT4050,1,5,3.80369,0.18501,927.356,22.7,
1535,SBT4050,1,5,3.79459,-0.07401,927.482,22.6,
1535,SBT4050,1,5,3.79635,-0.038998,927.621,22.4,
1535,SBT4050,1,5,3.74203,-2.6651,928.473,22.3,
1535,SBT4050,1,5,3.47744,-12.597,946.558,22.3,
1535,SBT4050,1,5,3.619962,-4.3461,964.518,22.4,
1535,SBT4050,1,5,3.59191,-5.722,974.649,22.3,
1535,SBT4050,1,5,3.60386,-4.6925,986.222,22.2,
1535,SBT4050,1,5,3.61692,-4.5082,992.858,22.2,
1535,SBT4050,1,5,3.66564,-2.0351,1000.543,22.3,
1535,SBT4050,1,5,3.750438,0.8452,1001.217,22.3,
1535,SBT4050,1,5,3.84158,3.9997,1001.217,22.1,
1535,SBT4050,1,5,3.654902,-5.87,1002.77,22.2,
1535,SBT4050,1,5,3.50708,-9.867,1021.431,22.2,
1535,SBT4050,1,5,3.58843,-5.031,1035.57,22.2,
1535,SBT4050,1,5,3.68578,-0.8421,1041.524,22.3,
1535,SBT4050,1,5,3.6172,-4.5351,1045.464,22.3,
1535,SBT4050,1,5,3.61613,-3.8524,1055.052,22.2,
1535,SBT4050,1,5,3.62015,-3.5828,1062.272,22.1,
1535,SBT4050,1,5,3.68187,-0.78,1067.601,22,
1535,SBT4050,1,5,3.62111,-4.0757,1070.899,22,
1535,SBT4050,1,5,3.62897,-2.7268,1081.28,22,
1535,SBT4050,1,5,3.64164,-2.1868,1087.568,21.8,
1535,SBT4050,1,5,3.7818,3.1241,1087.797,21.8,
1535,SBT4050,1,5,3.73816,-0.019999,1087.801,22,
1535,SBT4050,1,5,3.73874,-0.04999,1087.908,21.9,
1535,SBT4050,1,5,3.74142,-0.05999,1088.021,21.8,
1535,SBT4050,1,5,3.681262,-2.8177,1089.508,21.7,
1535,SBT4050,1,5,3.61505,-4.946,1096.99,21.6,
1535,SBT4050,1,5,3.55131,-6.594,1109.096,21.6,
1535,SBT4050,1,5,3.598964,-3.9263,1118.449,21.6,
1535,SBT4050,1,5,3.58475,-4.4157,1126.076,21.6,
1535,SBT4050,1,5,3.57035,-4.7484,1134.728,21.6,
1535,SBT4050,1,5,3.55711,-5.116,1143.395,21.6,
1535,SBT4050,1,5,3.72962,2.5357,1148.57,21.6,
1535,SBT4050,1,5,3.699498,-0.037001,1148.576,21.5,
1535,SBT4050,1,5,3.70554,-0.075,1148.711,21.4,
1535,SBT4050,1,5,3.711896,-0.04901,1148.832,21.5,
1535,SBT4050,1,5,3.71597,-0.071,1148.954,21.4,
1535,SBT4050,1,5,3.715542,-0.21198,1149.381,21.4,
1535,SBT4050,1,5,3.722518,-0.063,1149.485,21.3,
1535,SBT4050,1,5,3.64187,-3.5986,1151.728,21.3,
1535,SBT4050,1,5,3.52793,-7.179,1163.673,21.1,
1535,SBT4050,1,5,3.51794,-6.602,1176.363,21.1,
1535,SBT4050,1,5,3.602266,-2.0292,1188.213,21.2,
1535,SBT4050,1,5,3.73372,2.4642,1188.83,21.3,
1535,SBT4050,1,5,3.47657,-8.369,1198.636,21.2,
1535,SBT4050,1,5,3.61564,-1.0369,1211.128,21.2,
1535,SBT4050,1,5,3.61466,-2.875,1211.814,21.3,
1535,SBT4050,1,5,3.3872,-10.877,1230.453,21.3,
1535,SBT4050,1,5,3.461928,-6.564,1247.182,21.4,
1535,SBT4050,1,5,3.529502,-3.4439,1258.309,21.4,
1535,SBT4050,1,5,3.66972,1.8829,1260.325,21.5,
1535,SBT4050,1,5,3.665656,-0.108,1260.343,21.5,
1535,SBT4050,1,5,3.34768,-12.611,1276.665,21.4,
1535,SBT4050,1,5,3.34336,-10.908,1299.051,21.5,
1535,SBT4050,1,5,3.48577,-3.9854,1314.679,21.6,
1535,SBT4050,1,5,3.65647,1.563,1315.346,21.8,
1535,SBT4050,1,5,3.45112,-7.785,1322.318,21.9,
1535,SBT4050,1,5,3.53251,-2.676,1336.43,21.9,
1535,SBT4050,1,5,3.71315,3.9999,1336.923,21.9,
1535,SBT4050,1,5,3.73325,3.9999,1337.003,21.9,
1535,SBT4050,1,5,3.68961,0.681,1337.003,22,
1535,SBT4050,1,5,3.66959,-0.084,1337.172,21.7,
1535,SBT4050,1,5,3.670914,-0.06998,1337.316,21.8,
1535,SBT4050,1,5,3.66868,-0.253,1337.493,21.6,
1535,SBT4050,1,5,3.32688,-14.501,1350.234,21.6,
1535,SBT4050,1,5,3.32105,-11.587,1377.433,21.6,
1535,SBT4050,1,5,3.610772,1.722,1389.952,21.7,
1535,SBT4050,1,5,3.70073,3.7138,1389.952,22,
1535,SBT4050,1,5,3.584906,-2.7918,1390.829,22,
1535,SBT4050,1,5,3.55127,-3.2431,1399.249,21.9,
1535,SBT4050,1,5,3.73456,4.0001,1399.821,21.9,
1535,SBT4050,1,5,3.6559,-0.076,1399.912,21.9,
1535,SBT4050,1,5,3.65725,-0.07599,1400.052,21.9,
1535,SBT4050,1,5,3.65908,-0.06998,1400.183,21.8,
1535,SBT4050,1,5,3.56648,-4.3942,1401.7,21.7,
1535,SBT4050,1,5,3.273757,-14.498,1426.276,21.7,
1535,SBT4050,1,5,3.37386,-7.959,1451.077,21.8,
1535,SBT4050,1,5,3.34198,-9.656,1464.991,21.9,
1535,SBT4050,1,5,3.37857,-7.393,1482.042,22.1,
1535,SBT4050,1,5,3.2881,-10.888,1501.179,22.3,
1535,SBT4050,1,5,3.4758,-2.323,1514.807,22.7,
1535,SBT4050,1,5,3.5661,0.7089,1517.437,22.7,
1535,SBT4050,1,5,3.669256,3.9997,1517.437,22.7,
1535,SBT4050,1,5,3.69596,4.0002,1517.437,22.5,
1535,SBT4050,1,5,3.62017,-0.05101,1517.478,22.7,
1535,SBT4050,1,5,3.62058,-0.07798,1517.63,22.5,
1535,SBT4050,1,5,3.62388,-0.07,1517.781,22.3,
1535,SBT4050,1,5,3.41997,-9.143,1523.336,22.4,
1535,SBT4050,1,5,3.31138,-11.215,1546.322,22.2,
1535,SBT4050,1,5,3.44254,-5.025,1558.319,22.2,
1535,SBT4050,1,5,3.41046,-6.216,1569.643,22.3,
1535,SBT4050,1,5,3.50175,-1.9458,1578.698,22.3,
1535,SBT4050,1,5,3.44865,-4.5703,1585.754,22.3,
1535,SBT4050,1,5,3.5578,0.184,1590.494,22.4,
1535,SBT4050,1,5,3.619032,1.8971,1590.494,22.2,
1535,SBT4050,1,5,3.691452,3.9999,1590.494,22.1,
1535,SBT4050,1,5,3.36579,-10.399,1598.748,22.1,
1535,SBT4050,1,5,3.362406,-8.279,1617.687,22.1,
1535,SBT4050,1,5,3.4542,-3.8711,1628.374,22.1,
1535,SBT4050,1,5,3.53013,-1.1019,1631.529,22.1,
1535,SBT4050,1,5,3.42115,-5.807,1639.002,22.1,
1535,SBT4050,1,5,3.46298,-3.596,1647.208,22.2,
1535,SBT4050,1,5,3.47573,-2.9612,1654.26,22.1,
1535,SBT4050,1,5,3.53568,-0.6768,1657.504,22.2,
1535,SBT4050,1,5,3.400946,-6.484,1664.751,22.1,
1535,SBT4050,1,5,3.460874,-3.4323,1673.105,22,
1535,SBT4050,1,5,3.55491,0.46906,1677.341,22,
1535,SBT4050,1,5,3.66149,3.9999,1677.341,22,
1535,SBT4050,1,5,3.58144,-0.069,1677.394,22,
1535,SBT4050,1,5,3.58481,-0.07,1677.529,21.9,
1535,SBT4050,1,5,3.58772,-0.08898,1677.669,21.7,
1535,SBT4050,1,5,3.49803,-3.7079,1681.939,21.6,
1535,SBT4050,1,5,3.42278,-6.128,1691.191,21.6,
1535,SBT4050,1,5,3.42417,-5.019,1703.305,21.6,
1535,SBT4050,1,5,3.451972,-3.6818,1711.148,21.7,
1535,SBT4050,1,5,3.43264,-4.2639,1719.39,21.7,
1535,SBT4050,1,5,3.426054,-4.2612,1728.089,21.7,
1535,SBT4050,1,5,3.42207,-4.1082,1737.217,21.6,
1535,SBT4050,1,5,3.57866,1.545,1738.402,21.7,
1535,SBT4050,1,5,3.55274,-0.07398,1738.472,21.7,
1535,SBT4050,1,5,3.56008,-0.06799,1738.606,21.6,
1535,SBT4050,1,5,3.565256,-0.07701,1738.729,21.5,
1535,SBT4050,1,5,3.566492,-0.22702,1738.901,21.3,
1535,SBT4050,1,5,3.57422,-0.033999,1739.316,21.3,
1535,SBT4050,1,5,3.56994,-0.38704,1739.477,21.2,
1535,SBT4050,1,5,3.42635,-5.935,1745.711,21.2,
1535,SBT4050,1,5,3.38017,-6.423,1759.177,21.3,
1535,SBT4050,1,5,3.330356,-7.699,1772.244,21.1,
1535,SBT4050,1,5,3.51668,0.009999,1778.866,21.2,
1535,SBT4050,1,5,3.42918,-4.9432,1780.261,21.2,
1535,SBT4050,1,5,3.30089,-8.543,1795.663,21.3,
1535,SBT4050,1,5,3.60184,3.8192,1801.398,21.3,
1535,SBT4050,1,5,3.28912,-9.905,1807.413,21.3,
1535,SBT4050,1,5,3.27157,-8.476,1828.408,21.4,
1535,SBT4050,1,5,3.31768,-6.346,1842.625,21.4,
1535,SBT4050,1,5,3.449818,-1.2787,1850.339,21.6,
1535,SBT4050,1,5,3.602186,3.9999,1850.725,21.7,
1535,SBT4050,1,5,3.3461,-7.603,1854.05,21.6,
1535,SBT4050,1,5,3.18945,-11.172,1876.688,21.7,
1535,SBT4050,1,5,3.20789,-9.248,1897.468,21.8,
1535,SBT4050,1,5,3.55287,3.9997,1906.085,21.9,
1535,SBT4050,1,5,3.456048,-1.994,1906.772,22.1,
1535,SBT4050,1,5,3.28319,-7.976,1917.859,22.1,
1535,SBT4050,1,5,3.53244,2.371,1924.271,22.2,
1535,SBT4050,1,5,3.590574,3.2511,1924.271,22.3,
1535,SBT4050,1,5,3.62151,3.9999,1924.271,22.3,
1535,SBT4050,1,5,3.532518,-0.16198,1924.354,22.2,
1535,SBT4050,1,5,3.53262,-0.07299,1924.544,22.1,
1535,SBT4050,1,5,3.53344,-0.078,1924.705,21.9,
1535,SBT4050,1,5,3.4229,-4.814,1926.583,21.9,
1535,SBT4050,1,5,3.11504,-14.499,1949.19,21.8,
1535,SBT4050,1,5,3.23589,-7.693,1973.281,22,
1535,SBT4050,1,5,3.571608,4.0004,1976.031,22.2,
1535,SBT4050,1,5,3.60439,3.9993,1976.031,22.3,
1535,SBT4050,1,5,3.40226,-4.6983,1979.71,22.3,
1535,SBT4050,1,5,3.59043,4.0002,1985.603,22.2,
1535,SBT4050,1,5,3.5645,1.4549,1985.603,22.2,
1535,SBT4050,1,5,3.52897,-0.052,1985.623,22.2,
1535,SBT4050,1,5,3.53233,0.063,1985.656,22,
1535,SBT4050,1,5,3.537184,0.18598,1985.705,22.1,
1535,SBT4050,1,5,3.202027,-13.162,1992.627,21.9,
1535,SBT4050,1,5,3.07453,-14.5,2020.68,21.8,
1535,SBT4050,1,5,3.336919,-4.0005,2036.575,21.9,
1535,SBT4050,1,5,3.24231,-7.12,2050.842,22.3,
1535,SBT4050,1,5,3.21935,-8.426,2060.456,22.4,
1535,SBT4050,1,5,3.39434,-1.636,2069.187,22.5,
1535,SBT4050,1,5,3.57309,3.9996,2069.761,22.6,
1535,SBT4050,1,5,3.59754,3.9999,2069.761,22.7,
1535,SBT4050,1,5,3.61248,4,2069.761,22.7,
1535,SBT4050,1,5,3.61039,3.3477,2069.761,22.5,
1535,SBT4050,1,5,3.53005,0.017,2069.78,22.4,
1535,SBT4050,1,5,3.52438,-0.06399,2069.829,22.5,
1535,SBT4050,1,5,3.52729,0.09299,2069.866,22.4,
1535,SBT4050,1,5,3.19158,-12.125,2081.496,22,
1535,SBT4050,1,5,3.29362,-5.831,2102.524,22.1,
1535,SBT4050,1,5,3.29516,-5.858,2112.459,22.1,
1535,SBT4050,1,5,3.312006,-4.6248,2124.077,22.3,
1535,SBT4050,1,5,3.40818,-1.7921,2127.16,22.4,
1535,SBT4050,1,5,3.43231,-0.7939,2131.897,22.5,
1535,SBT4050,1,5,3.54809,2.869,2131.994,22.4,
1535,SBT4050,1,5,3.59731,4.0005,2131.994,22.3,
1535,SBT4050,1,5,3.59894,3.3876,2131.994,22.2,
1535,SBT4050,1,5,3.3513,-5.361,2141.091,22.2,
1535,SBT4050,1,5,3.43175,-1.669,2147.706,22.2,
1535,SBT4050,1,5,3.57926,3.889,2149.234,22.2,
1535,SBT4050,1,5,3.53184,0.814,2149.234,22,
1535,SBT4050,1,5,3.486246,-0.5551,2151.428,21.9,
1535,SBT4050,1,5,3.5384,1.363,2151.586,21.8,
1535,SBT4050,1,5,3.58353,2.8267,2151.586,21.8,
1535,SBT4050,1,5,3.570268,1.5611,2151.586,21.7,
1535,SBT4050,1,5,3.55222,1.439,2153.378,21.7,
1535,SBT4050,1,5,3.52691,-0.034001,2153.395,21.6,
1535,SBT4050,1,5,3.57573,1.7149,2153.399,21.5,
1535,SBT4050,1,5,3.54348,0.039999,2153.399,21.5,
1535,SBT4050,1,5,3.53231,-0.077,2153.563,21.4,
1535,SBT4050,1,5,3.52964,-0.06698,2153.689,21.4,
1535,SBT4050,1,5,3.48502,-1.7703,2154.393,21.3,
1535,SBT4050,1,5,3.47327,-1.699,2158.186,21.3,
1535,SBT4050,1,5,3.32561,-6.444,2166.196,21.3,
1535,SBT4050,1,5,3.3655,-4.0278,2176.514,21.2,
1535,SBT4050,1,5,3.35045,-4.3383,2184.083,21.2,
1535,SBT4050,1,5,3.3307,-4.6157,2192.739,21.3,
1535,SBT4050,1,5,3.338388,-4.0308,2200.957,21.3,
1535,SBT4050,1,5,3.50914,2.2637,2206.395,21.2,
1535,SBT4050,1,5,3.485116,0.13699,2206.395,21.3,
1535,SBT4050,1,5,3.483752,-0.034999,2206.445,21.2,
1535,SBT4050,1,5,3.486962,-0.031998,2206.511,21.3,
1535,SBT4050,1,5,3.48871,-0.043,2206.573,21.2,
1535,SBT4050,1,5,3.49057,-0.039002,2206.644,21.1,
1535,SBT4050,1,5,3.492064,-0.05,2206.722,21,
1535,SBT4050,1,5,3.4934,-0.044999,2206.796,20.9,
1535,SBT4050,1,5,3.49523,-0.015999,2206.852,20.9,
1535,SBT4050,1,5,3.49559,-0.029,2206.917,20.9,
1535,SBT4050,1,5,3.49676,-0.025003,2206.988,20.8,
1535,SBT4050,1,5,3.49718,-0.039996,2207.062,20.9,
1535,SBT4050,1,5,3.49787,-0.025997,2207.12,20.8,
1535,SBT4050,1,5,3.49844,-0.037001,2207.186,20.8,
1535,SBT4050,1,5,3.498988,-0.032997,2207.255,20.8,
1535,SBT4050,1,5,3.49977,-0.024997,2207.306,20.6,
1535,SBT4050,1,5,3.50023,-0.024999,2207.369,20.6,
1535,SBT4050,1,5,3.50073,-0.035986,2207.436,20.6,
1535,SBT4050,1,5,3.50082,-0.036999,2207.501,20.6,
1535,SBT4050,1,5,3.50133,-0.033998,2207.566,20.5,
1535,SBT4050,1,5,3.501822,-0.029003,2207.628,20.5,
1535,SBT4050,1,5,3.50217,-0.033001,2207.689,20.5,
1535,SBT4050,1,5,3.50237,-0.035989,2207.752,20.5,
1535,SBT4050,1,5,3.50298,-0.03,2207.819,20.5,
1535,SBT4050,1,5,3.50311,-0.033001,2207.89,20.4,
1535,SBT4050,1,5,3.50309,-0.038995,2207.952,20.4,
1535,SBT4050,1,5,3.50335,-0.037,2208.021,20.4,
1535,SBT4050,1,5,3.50388,-0.027999,2208.081,20.4,
1535,SBT4050,1,5,3.50404,-0.029999,2208.149,20.4,
1535,SBT4050,1,5,3.50398,-0.036996,2208.22,20.3,
1535,SBT4050,1,5,3.504712,-0.021995,2208.279,20.4,
1535,SBT4050,1,5,3.50453,-0.034,2208.339,20.3,
1535,SBT4050,1,5,3.50476,-0.024995,2208.407,20.4,
1535,SBT4050,1,5,3.504948,-0.032999,2208.475,20.3,
1535,SBT4050,1,5,3.50529,-0.023998,2208.536,20.3,
1535,SBT4050,1,5,3.504902,-0.034002,2208.591,20.3,
1535,SBT4050,1,5,3.50534,-0.026998,2208.656,20.2,
1535,SBT4050,1,5,3.50535,-0.028999,2208.712,20.2,
1535,SBT4050,1,5,3.50522,-0.037004,2208.771,20.2,
1535,SBT4050,1,5,3.506004,-0.022999,2208.83,20.2,
1535,SBT4050,1,5,3.50573,-0.028994,2208.886,20.2,
1535,SBT4050,1,5,3.50586,-0.029002,2208.935,20.1,
1535,SBT4050,1,5,3.50638,-0.019001,2208.984,20.2,
1535,SBT4050,1,5,3.50631,-0.028997,2209.029,20.2,
1535,SBT4050,1,5,3.50644,-0.024002,2209.08,20.2,
1535,SBT4050,1,5,3.50617,-0.035003,2209.122,20.2,
1535,SBT4050,1,5,3.50615,-0.035987,2209.188,20.2,
1535,SBT4050,1,5,3.50682,-0.023,2209.232,20.2,
1535,SBT4050,1,5,3.50683,-0.023996,2209.287,20.1,
1535,SBT4050,1,5,3.507098,-0.014001,2209.338,20.1,
1535,SBT4050,1,5,3.506874,-0.03599,2209.394,20.1,
1535,SBT4050,1,5,3.50742,-0.017001,2209.444,20,
1535,SBT4050,1,5,3.507,-0.032999,2209.497,20.1,
1535,SBT4050,1,5,3.50726,-0.024003,2209.548,20,
1535,SBT4050,1,5,3.50728,-0.029998,2209.601,20.1,
1535,SBT4050,1,5,3.507274,-0.01799,2209.657,20,
1535,SBT4050,1,5,3.50747,-0.023001,2209.701,20.1,
1535,SBT4050,1,5,3.507868,-0.021997,2209.745,20,
1535,SBT4050,1,5,3.50783,-0.021001,2209.793,20.1,
1535,SBT4050,1,5,3.5079,-0.019997,2209.839,20.1,
1535,SBT4050,1,5,3.50798,-0.026,2209.896,20.1,
1535,SBT4050,1,5,3.508062,-0.024001,2209.945,20,
1535,SBT4050,1,5,3.50831,-0.020998,2209.985,20.1,
1535,SBT4050,1,5,3.50822,-0.028004,2210.037,20.1,
1535,SBT4050,1,5,3.50823,-0.024001,2210.091,20.1,
1535,SBT4050,1,5,3.50817,-0.023997,2210.139,20.1,
1535,SBT4050,1,5,3.5084,-0.028999,2210.195,20.1,
1535,SBT4050,1,5,3.50894,-0.020001,2210.244,20.1,
1535,SBT4050,1,5,3.50815,-0.033001,2210.302,20,
1535,SBT4050,1,5,3.50852,-0.026001,2210.355,20,
1535,SBT4050,1,5,3.50836,-0.035986,2210.407,20,
1535,SBT4050,1,5,3.50891,-0.02,2210.452,20,
1535,SBT4050,1,5,3.50853,-0.033001,2210.5,20,
1535,SBT4050,1,5,3.50915,0,2210.503,20,
1535,SBT4050,1,5,3.50927,0,2210.503,20.1,
1535,SBT4050,1,5,3.50946,0,2210.503,20,
1535,SBT4050,1,5,3.50957,0,2210.503,20,
1535,SBT4050,1,5,3.50956,0,2210.503,20,
1535,SBT4050,1,5,3.50971,0,2210.503,20,
1535,SBT4050,1,5,3.50989,0,2210.503,20.1,
1535,SBT4050,1,5,3.50996,0,2210.503,20,
1535,SBT4050,1,5,3.50989,0,2210.503,20.1,
1535,SBT4050,1,5,3.510254,0,2210.503,20,
1535,SBT4050,1,5,3.51035,0,2210.503,20,
1535,SBT4050,1,5,3.51037,0,2210.503,20,
1535,SBT4050,1,5,3.51014,0,2210.503,20,
1535,SBT4050,1,5,3.51071,0,2210.503,20.1,
1535,SBT4050,1,5,3.510386,0,2210.503,20,
1535,SBT4050,1,5,3.51038,0,2210.503,20,
1535,SBT4050,1,5,3.51048,0,2210.503,20,
1535,SBT4050,1,5,3.51084,0,2210.503,19.9,
1535,SBT4050,1,5,3.51086,0,2210.503,20,
1535,SBT4050,1,5,3.511,0,2210.503,20,
1535,SBT4050,1,5,3.51113,0,2210.503,20,
1535,SBT4050,1,5,3.51114,0,2210.503,20,
1535,SBT4050,1,5,3.51116,0,2210.503,20,
1535,SBT4050,1,5,3.51114,0,2210.503,20,
1535,SBT4050,1,5,3.5113,0,2210.503,20,
1535,SBT4050,1,5,3.511406,0,2210.503,20,
1535,SBT4050,1,5,3.51142,0,2210.503,20,
1535,SBT4050,1,5,3.51144,0,2210.503,20,
1535,SBT4050,1,5,3.5117,0,2210.503,20.1,
1535,SBT4050,1,5,3.51169,0,2210.503,20.1,
1535,SBT4050,1,5,3.51162,0,2210.503,20.1,
1535,SBT4050,1,5,3.51172,0,2210.503,20,
1535,SBT4050,1,5,3.51201,0,2210.503,20,
1535,SBT4050,1,5,3.51164,0,2210.503,20,
1535,SBT4050,1,5,3.51185,0,2210.503,20,
1535,SBT4050,1,5,3.51188,0,2210.503,20.1,
1535,SBT4050,1,5,3.51167,0,2210.503,20,
1535,SBT4050,1,5,3.51195,0,2210.503,20.1,
1535,SBT4050,1,5,3.51211,0,2210.503,20,
1535,SBT4050,1,5,3.5119,0,2210.503,20,
1535,SBT4050,1,5,3.51215,0,2210.503,20,
1535,SBT4050,1,5,3.51228,0,2210.503,20.1,
1535,SBT4050,1,5,3.51225,0,2210.503,20.1,
1535,SBT4050,1,5,3.512658,-0.0001,2210.503,,