File: Dataset/AANDCNet/cell1/cycle_28/Test1572.csv
Test:,1572,,,,,,,
Start Time:,8/9/2021 9:38 PM,,,,,,,
End Time:,8/10/2021 10:02 PM,,,,,,,
Test,Rack,Shelf,Position,Voltage (V),Current (A),Discharge Capacity (mAh),TC_1 (C),
1572,SBT4050,1,4,2.751037,0,0,20,
1572,SBT4050,1,4,3.288703,3.9998,0,20.1,
1572,SBT4050,1,4,3.57263,3.9999,0,20.7,
1572,SBT4050,1,4,3.643222,3.9997,0,21.4,
1572,SBT4050,1,4,3.674,4.0004,0,21.7,
1572,SBT4050,1,4,3.70615,4.0001,0,21.8,
1572,SBT4050,1,4,3.73753,3.9995,0,21.9,
1572,SBT4050,1,4,3.76751,4.0001,0,22,
1572,SBT4050,1,4,3.79311,3.9998,0,22,
1572,SBT4050,1,4,3.81819,3.9997,0,22.1,
1572,SBT4050,1,4,3.84701,4.0003,0,22.2,
1572,SBT4050,1,4,3.87897,3.9995,0,22.2,
1572,SBT4050,1,4,3.9115,4,0,22.3,
1572,SBT4050,1,4,3.94521,3.9998,0,22.4,
1572,SBT4050,1,4,3.97929,4,0,22.5,
1572,SBT4050,1,4,4.013752,3.9998,0,22.5,
1572,SBT4050,1,4,4.049112,4.0004,0,22.6,
1572,SBT4050,1,4,4.08368,3.9998,0,22.7,
1572,SBT4050,1,4,4.12035,3.9994,0,22.7,
1572,SBT4050,1,4,4.15993,3.9997,0,22.9,
1572,SBT4050,1,4,4.20017,3.9193,0,22.8,
1572,SBT4050,1,4,4.20017,3.0527,0,22.7,
1572,SBT4050,1,4,4.20005,2.4674,0,22.4,
1572,SBT4050,1,4,4.20001,2.0441,0,22,
1572,SBT4050,1,4,4.200096,1.7253,0,21.7,
1572,SBT4050,1,4,4.20004,1.4776,0,21.4,
1572,SBT4050,1,4,4.20006,1.2756,0,21.1,
1572,SBT4050,1,4,4.20005,1.1126,0,21,
1572,SBT4050,1,4,4.19995,0.9807,0,20.8,
1572,SBT4050,1,4,4.200108,0.866,0,20.8,
1572,SBT4050,1,4,4.20004,0.7714,0,20.7,
1572,SBT4050,1,4,4.20012,0.688,0,20.6,
1572,SBT4050,1,4,4.200084,0.6169,0,20.5,
1572,SBT4050,1,4,4.20012,0.5591,0,20.4,
1572,SBT4050,1,4,4.20013,0.5063,0,20.4,
1572,SBT4050,1,4,4.19983,0.46064,0,20.3,
1572,SBT4050,1,4,4.2002,0.41882,0,20.4,
1572,SBT4050,1,4,4.200096,0.38519,0,20.3,
1572,SBT4050,1,4,4.20013,0.35298,0,20.3,
1572,SBT4050,1,4,4.20032,0.32426,0,20.3,
1572,SBT4050,1,4,4.20017,0.30025,0,20.3,
1572,SBT4050,1,4,4.19988,0.28108,0,20.3,
1572,SBT4050,1,4,4.200072,0.25961,0,20.3,
1572,SBT4050,1,4,4.20017,0.2418,0,20.3,
1572,SBT4050,1,4,4.19983,0.22579,0,20.3,
1572,SBT4050,1,4,4.19999,0.21125,0,20.3,
1572,SBT4050,1,4,4.20027,0.19853,0,20.2,
1572,SBT4050,1,4,4.20017,0.18773,0,20.2,
1572,SBT4050,1,4,4.20001,0.1757,0,20.2,
1572,SBT4050,1,4,4.20001,0.16572,0,20.2,
1572,SBT4050,1,4,4.200096,0.15716,0,20.2,
1572,SBT4050,1,4,4.20024,0.14901,0,20.2,
1572,SBT4050,1,4,4.20022,0.14089,0,20.2,
1572,SBT4050,1,4,4.19989,0.13337,0,20.2,
1572,SBT4050,1,4,4.2,0.12775,0,20.2,
1572,SBT4050,1,4,4.2,0.12234,0,20.2,
1572,SBT4050,1,4,4.20026,0.11419,0,20.2,
1572,SBT4050,1,4,4.20037,0.11101,0,20.2,
1572,SBT4050,1,4,4.19998,0.10662,0,20.2,
1572,SBT4050,1,4,4.19989,0.10354,0,20.2,
1572,SBT4050,1,4,4.193902,0,0,20.2,
1572,SBT4050,1,4,4.19058,0,0,20.2,
1572,SBT4050,1,4,4.18816,0,0,20.2,
1572,SBT4050,1,4,4.185522,0,0,20.2,
1572,SBT4050,1,4,4.18373,0,0,20.2,
1572,SBT4050,1,4,4.18214,0,0,20.2,
1572,SBT4050,1,4,4.18014,0,0,20.3,
1572,SBT4050,1,4,4.1791,0,0,20.2,
1572,SBT4050,1,4,4.17746,0,0,20.2,
1572,SBT4050,1,4,4.17624,0,0,20.2,
1572,SBT4050,1,4,4.17486,0,0,20.2,
1572,SBT4050,1,4,4.17396,0,0,20.2,
1572,SBT4050,1,4,4.172758,0,0,20.3,
1572,SBT4050,1,4,4.17143,0,0,20.2,
1572,SBT4050,1,4,4.17031,0,0,20.3,
1572,SBT4050,1,4,4.16965,0,0,20.3,
1572,SBT4050,1,4,4.16872,0,0,20.3,
1572,SBT4050,1,4,4.16804,0,0,20.3,
1572,SBT4050,1,4,4.16704,0,0,20.2,
1572,SBT4050,1,4,4.16641,0,0,20.3,
1572,SBT4050,1,4,4.16554,0,0,20.3,
1572,SBT4050,1,4,4.16495,0,0,20.3,
1572,SBT4050,1,4,4.16422,0,0,20.3,
1572,SBT4050,1,4,4.16335,0,0,20.3,
1572,SBT4050,1,4,4.16293,0,0,20.3,
1572,SBT4050,1,4,4.16239,0,0,20.3,
1572,SBT4050,1,4,4.16162,0,0,20.3,
1572,SBT4050,1,4,4.16098,0,0,20.2,
1572,SBT4050,1,4,4.16064,0,0,20.3,
1572,SBT4050,1,4,4.16001,0,0,20.3,
1572,SBT4050,1,4,4.15951,0,0,20.3,
1572,SBT4050,1,4,4.15884,0,0,20.3,
1572,SBT4050,1,4,4.15864,0,0,20.3,
1572,SBT4050,1,4,4.15796,0,0,20.3,
1572,SBT4050,1,4,4.157736,0,0,20.3,
1572,SBT4050,1,4,4.15712,0,0,20.3,
1572,SBT4050,1,4,4.15671,0,0,20.3,
1572,SBT4050,1,4,4.15614,0,0,20.3,
1572,SBT4050,1,4,4.15565,0,0,20.3,
1572,SBT4050,1,4,4.15516,0,0,20.3,
1572,SBT4050,1,4,4.15478,0,0,20.3,
1572,SBT4050,1,4,4.15477,0,0,20.3,
1572,SBT4050,1,4,4.154034,0,0,20.3,
1572,SBT4050,1,4,4.15373,0,0,20.3,
1572,SBT4050,1,4,4.15344,0,0,20.3,
1572,SBT4050,1,4,4.153354,0,0,20.3,
1572,SBT4050,1,4,3.61601,-9.999,186.151,22.4,
1572,SBT4050,1,4,3.52256,-9.998,405.582,24.8,
1572,SBT4050,1,4,3.447002,-9.999,625.015,26.3,
1572,SBT4050,1,4,3.37744,-9.999,844.448,27.2,
1572,SBT4050,1,4,3.3123,-9.999,1063.882,27.9,
1572,SBT4050,1,4,3.24212,-9.999,1283.318,28.1,
1572,SBT4050,1,4,3.15519,-9.999,1502.75,28.6,
1572,SBT4050,1,4,3.04049,-10.001,1722.181,29.5,
1572,SBT4050,1,4,2.85434,-10,1941.616,30.7,
1572,SBT4050,1,4,3.06883,0,2121.39,32.5,
1572,SBT4050,1,4,3.15119,0,2121.39,27.9,
1572,SBT4050,1,4,3.16596,0,2121.39,24.9,
1572,SBT4050,1,4,3.17389,0,2121.39,23.1,
1572,SBT4050,1,4,3.17864,0,2121.39,22,
1572,SBT4050,1,4,3.18246,0,2121.39,21.3,
1572,SBT4050,1,4,3.1852,0,2121.39,20.9,
1572,SBT4050,1,4,3.18762,0,2121.39,20.7,
1572,SBT4050,1,4,3.18944,0,2121.39,20.5,
1572,SBT4050,1,4,3.19141,0,2121.39,20.4,
1572,SBT4050,1,4,3.19293,0,2121.39,20.4,
1572,SBT4050,1,4,3.194543,0,2121.39,20.3,
1572,SBT4050,1,4,3.60123,4.0001,2121.39,20.5,
1572,SBT4050,1,4,3.6525,4.0002,2121.39,21,
1572,SBT4050,1,4,3.68543,3.9994,2121.39,21.4,
1572,SBT4050,1,4,3.71648,4.0006,2121.39,21.7,
1572,SBT4050,1,4,3.74736,4,2121.39,21.8,
1572,SBT4050,1,4,3.77274,4,2121.39,21.9,
1572,SBT4050,1,4,3.795682,4.0001,2121.39,22,
1572,SBT4050,1,4,3.82346,4.0001,2121.39,22,
1572,SBT4050,1,4,3.854046,4,2121.39,22.1,
1572,SBT4050,1,4,3.88621,4,2121.39,22.2,
1572,SBT4050,1,4,3.92036,4.0006,2121.39,22.3,
1572,SBT4050,1,4,3.956294,3.9995,2121.39,22.4,
1572,SBT4050,1,4,3.993654,4.0001,2121.39,22.4,
1572,SBT4050,1,4,4.031186,4.0001,2121.39,22.5,
1572,SBT4050,1,4,4.06836,4.0001,2121.39,22.5,
1572,SBT4050,1,4,4.10583,3.9998,2121.39,22.6,
1572,SBT4050,1,4,4.14656,3.9997,2121.39,22.7,
1572,SBT4050,1,4,4.19089,4,2121.39,22.7,
1572,SBT4050,1,4,4.200114,3.2114,2121.39,22.7,
1572,SBT4050,1,4,4.20036,2.5542,2121.39,22.4,
1572,SBT4050,1,4,4.20009,2.0917,2121.39,22.1,
1572,SBT4050,1,4,4.20017,1.7508,2121.39,21.7,
1572,SBT4050,1,4,4.19999,1.4891,2121.39,21.4,
1572,SBT4050,1,4,4.20024,1.2768,2121.39,21.2,
1572,SBT4050,1,4,4.200114,1.1092,2121.39,21,
1572,SBT4050,1,4,4.20016,0.9729,2121.39,20.8,
1572,SBT4050,1,4,4.19997,0.8553,2121.39,20.8,
1572,SBT4050,1,4,4.19989,0.7587,2121.39,20.7,
1572,SBT4050,1,4,4.19998,0.6744,2121.39,20.6,
1572,SBT4050,1,4,4.20003,0.6048,2121.39,20.5,
1572,SBT4050,1,4,4.1999,0.5431,2121.39,20.5,
1572,SBT4050,1,4,4.20026,0.4891,2121.39,20.4,
1572,SBT4050,1,4,4.20015,0.44528,2121.39,20.4,
1572,SBT4050,1,4,4.19996,0.40607,2121.39,20.4,
1572,SBT4050,1,4,4.200078,0.37103,2121.39,20.3,
1572,SBT4050,1,4,4.19996,0.33988,2121.39,20.3,
1572,SBT4050,1,4,4.19985,0.31146,2121.39,20.3,
1572,SBT4050,1,4,4.20005,0.28873,2121.39,20.3,
1572,SBT4050,1,4,4.1999,0.26672,2121.39,20.2,
1572,SBT4050,1,4,4.20002,0.24848,2121.39,20.2,
1572,SBT4050,1,4,4.20001,0.23065,2121.39,20.2,
1572,SBT4050,1,4,4.20023,0.21652,2121.39,20.2,
1572,SBT4050,1,4,4.20005,0.20177,2121.39,20.2,
1572,SBT4050,1,4,4.2002,0.19017,2121.39,20.2,
1572,SBT4050,1,4,4.20017,0.17764,2121.39,20.2,
1572,SBT4050,1,4,4.19996,0.16649,2121.39,20.2,
1572,SBT4050,1,4,4.20004,0.15794,2121.39,20.2,
1572,SBT4050,1,4,4.20009,0.14956,2121.39,20.2,
1572,SBT4050,1,4,4.20001,0.14208,2121.39,20.2,
1572,SBT4050,1,4,4.199756,0.133,2121.39,20.2,
1572,SBT4050,1,4,4.20009,0.1274,2121.39,20.2,
1572,SBT4050,1,4,4.20015,0.12116,2121.39,20.2,
1572,SBT4050,1,4,4.20017,0.11654,2121.39,20.2,
1572,SBT4050,1,4,4.20016,0.11039,2121.39,20.1,
1572,SBT4050,1,4,4.19991,0.10538,2121.39,20.2,
1572,SBT4050,1,4,4.20013,0.10118,2121.39,20.2,
1572,SBT4050,1,4,4.19284,0,2121.39,20.2,
1572,SBT4050,1,4,4.18968,0,2121.39,20.2,
1572,SBT4050,1,4,4.18741,0,2121.39,20.2,
1572,SBT4050,1,4,4.184866,0,2121.39,20.2,
1572,SBT4050,1,4,4.18301,0,2121.39,20.2,
1572,SBT4050,1,4,4.18137,0,2121.39,20.2,
1572,SBT4050,1,4,4.1799,0,2121.39,20.2,
1572,SBT4050,1,4,4.1784,0,2121.39,20.3,
1572,SBT4050,1,4,4.177092,0,2121.39,20.2,
1572,SBT4050,1,4,4.175498,0,2121.39,20.3,
1572,SBT4050,1,4,4.174866,0,2121.39,20.2,
1572,SBT4050,1,4,4.17346,0,2121.39,20.3,
1572,SBT4050,1,4,4.17237,0,2121.39,20.3,
1572,SBT4050,1,4,4.17141,0,2121.39,20.3,
1572,SBT4050,1,4,4.17048,0,2121.39,20.3,
1572,SBT4050,1,4,4.16925,0,2121.39,20.2,
1572,SBT4050,1,4,4.16854,0,2121.39,20.2,
1572,SBT4050,1,4,4.167848,0,2121.39,20.3,
1572,SBT4050,1,4,4.166864,0,2121.39,20.2,
1572,SBT4050,1,4,4.16608,0,2121.39,20.3,
1572,SBT4050,1,4,4.165702,0,2121.39,20.2,
1572,SBT4050,1,4,4.16491,0,2121.39,20.3,
1572,SBT4050,1,4,4.16413,0,2121.39,20.2,
1572,SBT4050,1,4,4.163484,0,2121.39,20.2,
1572,SBT4050,1,4,4.16288,0,2121.39,20.3,
1572,SBT4050,1,4,4.16191,0,2121.39,20.3,
1572,SBT4050,1,4,4.16173,0,2121.39,20.3,
1572,SBT4050,1,4,4.16107,0,2121.39,20.3,
1572,SBT4050,1,4,4.16015,0,2121.39,20.3,
1572,SBT4050,1,4,4.15999,0,2121.39,20.3,
1572,SBT4050,1,4,4.15933,0,2121.39,20.2,
1572,SBT4050,1,4,4.1585,0,2121.39,20.2,
1572,SBT4050,1,4,4.15838,0,2121.39,20.3,
1572,SBT4050,1,4,4.15815,0,2121.39,20.3,
1572,SBT4050,1,4,4.15757,0,2121.39,20.3,
1572,SBT4050,1,4,4.15731,0,2121.39,20.3,
1572,SBT4050,1,4,4.15664,0,2121.39,20.3,
1572,SBT4050,1,4,4.15608,0,2121.39,20.3,
1572,SBT4050,1,4,4.156274,0,2121.39,20.3,
1572,SBT4050,1,4,4.15532,0,2121.39,20.3,
1572,SBT4050,1,4,4.15493,0,2121.39,20.3,
1572,SBT4050,1,4,4.154604,0,2121.39,20.2,
1572,SBT4050,1,4,4.15455,0,2121.39,20.3,
1572,SBT4050,1,4,4.15398,0,2121.39,20.3,
1572,SBT4050,1,4,4.15371,0,2121.39,20.3,
1572,SBT4050,1,4,3.596262,-15,2170.201,20.4,
1572,SBT4050,1,4,3.39977,-14.998,2499.359,26.2,
1572,SBT4050,1,4,3.31408,-14.998,2828.515,30.4,
1572,SBT4050,1,4,3.22958,-15.001,3157.667,32.9,
1572,SBT4050,1,4,3.13084,-15,3486.82,34.2,
1572,SBT4050,1,4,2.99562,-14.999,3815.972,35.1,
1572,SBT4050,1,4,2.69706,-14.999,4145.124,37.2,
1572,SBT4050,1,4,3.16853,0,4230.758,34.6,
1572,SBT4050,1,4,3.18958,0,4230.758,29.3,
1572,SBT4050,1,4,3.1985,0,4230.758,25.7,
1572,SBT4050,1,4,3.20393,0,4230.758,23.6,
1572,SBT4050,1,4,3.2076,0,4230.758,22.3,
1572,SBT4050,1,4,3.21053,0,4230.758,21.6,
1572,SBT4050,1,4,3.2128,0,4230.758,21.1,
1572,SBT4050,1,4,3.21432,0,4230.758,20.8,
1572,SBT4050,1,4,3.216081,0,4230.758,20.6,
1572,SBT4050,1,4,3.21745,0,4230.758,20.5,
1572,SBT4050,1,4,3.21834,0,4230.758,20.4,
1572,SBT4050,1,4,3.53337,3.9996,4230.758,20.4,
1572,SBT4050,1,4,3.64403,4,4230.758,20.9,
1572,SBT4050,1,4,3.67562,4,4230.758,21.5,
1572,SBT4050,1,4,3.7075,3.9998,4230.758,21.7,
1572,SBT4050,1,4,3.73814,4.0006,4230.758,21.9,
1572,SBT4050,1,4,3.76578,4.0002,4230.758,21.9,
1572,SBT4050,1,4,3.78853,4.0004,4230.758,22,
1572,SBT4050,1,4,3.81451,3.9998,4230.758,22.1,
1572,SBT4050,1,4,3.84434,3.9995,4230.758,22.2,
1572,SBT4050,1,4,3.87664,4,4230.758,22.3,
1572,SBT4050,1,4,3.910504,4.0003,4230.758,22.4,
1572,SBT4050,1,4,3.9462,3.9998,4230.758,22.4,
1572,SBT4050,1,4,3.98244,3.9997,4230.758,22.5,
1572,SBT4050,1,4,4.02021,4,4230.758,22.6,
1572,SBT4050,1,4,4.05675,4,4230.758,22.7,
1572,SBT4050,1,4,4.093962,4,4230.758,22.7,
1572,SBT4050,1,4,4.13357,3.9998,4230.758,22.8,
1572,SBT4050,1,4,4.17644,4.0003,4230.758,22.8,
1572,SBT4050,1,4,4.20012,3.4748,4230.758,22.9,
1572,SBT4050,1,4,4.20013,2.7371,4230.758,22.7,
1572,SBT4050,1,4,4.20007,2.2223,4230.758,22.3,
1572,SBT4050,1,4,4.20022,1.8478,4230.758,21.9,
1572,SBT4050,1,4,4.19997,1.5653,4230.758,21.6,
1572,SBT4050,1,4,4.20006,1.3387,4230.758,21.4,
1572,SBT4050,1,4,4.20025,1.1589,4230.758,21.2,
1572,SBT4050,1,4,4.200212,1.0098,4230.758,21,
1572,SBT4050,1,4,4.20013,0.8883,4230.758,20.9,
1572,SBT4050,1,4,4.200164,0.7845,4230.758,20.8,
1572,SBT4050,1,4,4.20004,0.6975,4230.758,20.7,
1572,SBT4050,1,4,4.20013,0.6253,4230.758,20.6,
1572,SBT4050,1,4,4.19991,0.5596,4230.758,20.6,
1572,SBT4050,1,4,4.20037,0.5045,4230.758,20.5,
1572,SBT4050,1,4,4.19996,0.45679,4230.758,20.5,
1572,SBT4050,1,4,4.19991,0.41694,4230.758,20.5,
1572,SBT4050,1,4,4.199854,0.38143,4230.758,20.4,
1572,SBT4050,1,4,4.200176,0.34902,4230.758,20.4,
1572,SBT4050,1,4,4.20013,0.32175,4230.758,20.4,
1572,SBT4050,1,4,4.20004,0.2962,4230.758,20.4,
1572,SBT4050,1,4,4.2001,0.27475,4230.758,20.4,
1572,SBT4050,1,4,4.20006,0.25572,4230.758,20.4,
1572,SBT4050,1,4,4.199842,0.23644,4230.758,20.3,
1572,SBT4050,1,4,4.20013,0.22113,4230.758,20.4,
1572,SBT4050,1,4,4.200152,0.20822,4230.758,20.4,
1572,SBT4050,1,4,4.19997,0.19516,4230.758,20.4,
1572,SBT4050,1,4,4.20007,0.18295,4230.758,20.4,
1572,SBT4050,1,4,4.19993,0.17085,4230.758,20.4,
1572,SBT4050,1,4,4.19994,0.16054,4230.758,20.3,
1572,SBT4050,1,4,4.19999,0.15261,4230.758,20.4,
1572,SBT4050,1,4,4.20014,0.14437,4230.758,20.3,
1572,SBT4050,1,4,4.200164,0.13665,4230.758,20.4,
1572,SBT4050,1,4,4.19999,0.1288,4230.758,20.3,
1572,SBT4050,1,4,4.19995,0.1232,4230.758,20.3,
1572,SBT4050,1,4,4.20012,0.11667,4230.758,20.3,
1572,SBT4050,1,4,4.19993,0.11152,4230.758,20.3,
1572,SBT4050,1,4,4.19997,0.10666,4230.758,20.3,
1572,SBT4050,1,4,4.20014,0.10351,4230.758,20.3,
1572,SBT4050,1,4,4.19458,0,4230.758,20.3,
1572,SBT4050,1,4,4.19083,0,4230.758,20.3,
1572,SBT4050,1,4,4.18784,0,4230.758,20.3,
1572,SBT4050,1,4,4.18585,0,4230.758,20.3,
1572,SBT4050,1,4,4.1839,0,4230.758,20.3,
1572,SBT4050,1,4,4.18226,0,4230.758,20.3,
1572,SBT4050,1,4,4.18029,0,4230.758,20.3,
1572,SBT4050,1,4,4.17902,0,4230.758,20.3,
1572,SBT4050,1,4,4.1777,0,4230.758,20.2,
1572,SBT4050,1,4,4.176084,0,4230.758,20.3,
1572,SBT4050,1,4,4.174888,0,4230.758,20.2,
1572,SBT4050,1,4,4.1739,0,4230.758,20.3,
1572,SBT4050,1,4,4.17254,0,4230.758,20.3,
1572,SBT4050,1,4,4.17183,0,4230.758,20.3,
1572,SBT4050,1,4,4.17053,0,4230.758,20.3,
1572,SBT4050,1,4,4.16964,0,4230.758,20.2,
1572,SBT4050,1,4,4.168892,0,4230.758,20.2,
1572,SBT4050,1,4,4.168194,0,4230.758,20.3,
1572,SBT4050,1,4,4.16745,0,4230.758,20.2,
1572,SBT4050,1,4,4.16664,0,4230.758,20.3,
1572,SBT4050,1,4,4.16575,0,4230.758,20.2,
1572,SBT4050,1,4,4.16526,0,4230.758,20.3,
1572,SBT4050,1,4,4.16467,0,4230.758,20.2,
1572,SBT4050,1,4,4.16355,0,4230.758,20.3,
1572,SBT4050,1,4,4.16298,0,4230.758,20.2,
1572,SBT4050,1,4,4.162414,0,4230.758,20.2,
1572,SBT4050,1,4,4.16189,0,4230.758,20.2,
1572,SBT4050,1,4,4.161274,0,4230.758,20.2,
1572,SBT4050,1,4,4.16076,0,4230.758,20.2,
1572,SBT4050,1,4,4.1599,0,4230.758,20.2,
1572,SBT4050,1,4,4.1599,0,4230.758,20.2,
1572,SBT4050,1,4,4.15914,0,4230.758,20.2,
1572,SBT4050,1,4,4.15886,0,4230.758,20.3,
1572,SBT4050,1,4,4.15825,0,4230.758,20.3,
1572,SBT4050,1,4,4.15822,0,4230.758,20.2,
1572,SBT4050,1,4,4.157146,0,4230.758,20.2,
1572,SBT4050,1,4,4.15716,0,4230.758,20.3,
1572,SBT4050,1,4,4.15657,0,4230.758,20.2,
1572,SBT4050,1,4,4.15603,0,4230.758,20.2,
1572,SBT4050,1,4,4.15574,0,4230.758,20.3,
1572,SBT4050,1,4,4.15551,0,4230.758,20.3,
1572,SBT4050,1,4,4.154966,0,4230.758,20.3,
1572,SBT4050,1,4,4.15462,0,4230.758,20.3,
1572,SBT4050,1,4,4.154292,0,4230.758,20.3,
1572,SBT4050,1,4,4.153926,0,4230.758,20.4,
1572,SBT4050,1,4,4.15406,0,4230.758,20.4,
1572,SBT4050,1,4,3.52526,-12.501,4457.272,23.3,
1572,SBT4050,1,4,3.42772,-12.503,4731.565,26.8,
1572,SBT4050,1,4,3.3471,-12.499,5005.864,29,
1572,SBT4050,1,4,3.26956,-12.5,5280.159,30.5,
1572,SBT4050,1,4,3.18399,-12.501,5554.454,31.1,
1572,SBT4050,1,4,3.072832,-12.498,5828.752,31.7,
1572,SBT4050,1,4,2.89924,-12.501,6103.045,33.1,
1572,SBT4050,1,4,3.0692,0,6340.334,35.5,
1572,SBT4050,1,4,3.16509,0,6340.334,30.1,
1572,SBT4050,1,4,3.17943,0,6340.334,26.4,
1572,SBT4050,1,4,3.18744,0,6340.334,24,
1572,SBT4050,1,4,3.19246,0,6340.334,22.6,
1572,SBT4050,1,4,3.1961,0,6340.334,21.7,
1572,SBT4050,1,4,3.19893,0,6340.334,21.2,
1572,SBT4050,1,4,3.20122,0,6340.334,20.8,
1572,SBT4050,1,4,3.20345,0,6340.334,20.7,
1572,SBT4050,1,4,3.2049,0,6340.334,20.6,
1572,SBT4050,1,4,3.20639,0,6340.334,20.5,
1572,SBT4050,1,4,3.20784,0,6340.334,20.5,
1572,SBT4050,1,4,3.6005,4,6340.334,20.6,
1572,SBT4050,1,4,3.65361,3.9998,6340.334,21.2,
1572,SBT4050,1,4,3.68618,3.9997,6340.334,21.6,
1572,SBT4050,1,4,3.71753,3.9998,6340.334,21.8,
1572,SBT4050,1,4,3.748558,4,6340.334,21.9,
1572,SBT4050,1,4,3.77361,4.0007,6340.334,22,
1572,SBT4050,1,4,3.79724,3.9994,6340.334,22,
1572,SBT4050,1,4,3.8248,4.0001,6340.334,22.1,
1572,SBT4050,1,4,3.85595,4.0003,6340.334,22.2,
1572,SBT4050,1,4,3.88876,4.0001,6340.334,22.3,
1572,SBT4050,1,4,3.9231,4.0006,6340.334,22.4,
1572,SBT4050,1,4,3.95961,4,6340.334,22.4,
1572,SBT4050,1,4,3.99652,4.0001,6340.334,22.6,
1572,SBT4050,1,4,4.0339,3.9997,6340.334,22.7,
1572,SBT4050,1,4,4.07076,4,6340.334,22.6,
1572,SBT4050,1,4,4.10857,3.9998,6340.334,22.7,
1572,SBT4050,1,4,4.14957,3.9998,6340.334,22.8,
1572,SBT4050,1,4,4.19417,4.0001,6340.334,22.8,
1572,SBT4050,1,4,4.20038,3.1496,6340.334,22.8,
1572,SBT4050,1,4,4.20017,2.5146,6340.334,22.5,
1572,SBT4050,1,4,4.20008,2.0594,6340.334,22.2,
1572,SBT4050,1,4,4.20016,1.7232,6340.334,21.8,
1572,SBT4050,1,4,4.200246,1.4656,6340.334,21.5,
1572,SBT4050,1,4,4.19985,1.2594,6340.334,21.3,
1572,SBT4050,1,4,4.20016,1.0937,6340.334,21.1,
1572,SBT4050,1,4,4.2002,0.9559,6340.334,21,
1572,SBT4050,1,4,4.20033,0.8408,6340.334,20.9,
1572,SBT4050,1,4,4.20038,0.7445,6340.334,20.8,
1572,SBT4050,1,4,4.20004,0.6667,6340.334,20.7,
1572,SBT4050,1,4,4.19998,0.5967,6340.334,20.7,
1572,SBT4050,1,4,4.19986,0.5369,6340.334,20.6,
1572,SBT4050,1,4,4.20017,0.4857,6340.334,20.5,
1572,SBT4050,1,4,4.20001,0.44051,6340.334,20.5,
1572,SBT4050,1,4,4.199924,0.40289,6340.334,20.5,
1572,SBT4050,1,4,4.19982,0.36706,6340.334,20.5,
1572,SBT4050,1,4,4.20011,0.33511,6340.334,20.4,
1572,SBT4050,1,4,4.20019,0.31093,6340.334,20.4,
1572,SBT4050,1,4,4.19998,0.28658,6340.334,20.4,
1572,SBT4050,1,4,4.19984,0.2676,6340.334,20.4,
1572,SBT4050,1,4,4.19996,0.24701,6340.334,20.4,
1572,SBT4050,1,4,4.199948,0.23035,6340.334,20.4,
1572,SBT4050,1,4,4.199924,0.21563,6340.334,20.4,
1572,SBT4050,1,4,4.20015,0.20133,6340.334,20.4,
1572,SBT4050,1,4,4.2001,0.18771,6340.334,20.3,
1572,SBT4050,1,4,4.20011,0.17941,6340.334,20.3,
1572,SBT4050,1,4,4.20017,0.16687,6340.334,20.3,
1572,SBT4050,1,4,4.20016,0.158,6340.334,20.4,
1572,SBT4050,1,4,4.20011,0.14947,6340.334,20.4,
1572,SBT4050,1,4,4.20008,0.14138,6340.334,20.3,
1572,SBT4050,1,4,4.2001,0.13175,6340.334,20.3,
1572,SBT4050,1,4,4.2002,0.12749,6340.334,20.3,
1572,SBT4050,1,4,4.20008,0.12078,6340.334,20.3,
1572,SBT4050,1,4,4.20014,0.11586,6340.334,20.3,
1572,SBT4050,1,4,4.20006,0.11063,6340.334,20.4,
1572,SBT4050,1,4,4.200246,0.10527,6340.334,20.3,
1572,SBT4050,1,4,4.196318,0,6340.334,20.4,
1572,SBT4050,1,4,4.19181,0,6340.334,20.3,
1572,SBT4050,1,4,4.18893,0,6340.334,20.3,
1572,SBT4050,1,4,4.186222,0,6340.334,20.4,
1572,SBT4050,1,4,4.18402,0,6340.334,20.4,
1572,SBT4050,1,4,4.18244,0,6340.334,20.4,
1572,SBT4050,1,4,4.18083,0,6340.334,20.3,
1572,SBT4050,1,4,4.179494,0,6340.334,20.4,
1572,SBT4050,1,4,4.17791,0,6340.334,20.3,
1572,SBT4050,1,4,4.176392,0,6340.334,20.4,
1572,SBT4050,1,4,4.17525,0,6340.334,20.3,
1572,SBT4050,1,4,4.17418,0,6340.334,20.4,
1572,SBT4050,1,4,4.1727,0,6340.334,20.4,
1572,SBT4050,1,4,4.17196,0,6340.334,20.4,
1572,SBT4050,1,4,4.170714,0,6340.334,20.4,
1572,SBT4050,1,4,4.16982,0,6340.334,20.4,
1572,SBT4050,1,4,4.16912,0,6340.334,20.4,
1572,SBT4050,1,4,4.16802,0,6340.334,20.4,
1572,SBT4050,1,4,4.16731,0,6340.334,20.4,
1572,SBT4050,1,4,4.1667,0,6340.334,20.4,
1572,SBT4050,1,4,4.16578,0,6340.334,20.4,
1572,SBT4050,1,4,4.16487,0,6340.334,20.3,
1572,SBT4050,1,4,4.16439,0,6340.334,20.4,
1572,SBT4050,1,4,4.16371,0,6340.334,20.4,
1572,SBT4050,1,4,4.16325,0,6340.334,20.4,
1572,SBT4050,1,4,4.1622,0,6340.334,20.4,
1572,SBT4050,1,4,4.16172,0,6340.334,20.4,
1572,SBT4050,1,4,4.16105,0,6340.334,20.4,
1572,SBT4050,1,4,4.1606,0,6340.334,20.4,
1572,SBT4050,1,4,4.16047,0,6340.334,20.4,
1572,SBT4050,1,4,4.15951,0,6340.334,20.4,
1572,SBT4050,1,4,4.15924,0,6340.334,20.4,
1572,SBT4050,1,4,4.15864,0,6340.334,20.4,
1572,SBT4050,1,4,4.1582,0,6340.334,20.4,
1572,SBT4050,1,4,4.15771,0,6340.334,20.4,
1572,SBT4050,1,4,4.15717,0,6340.334,20.4,
1572,SBT4050,1,4,4.156818,0,6340.334,20.4,
1572,SBT4050,1,4,4.15617,0,6340.334,20.4,
1572,SBT4050,1,4,4.15584,0,6340.334,20.4,
1572,SBT4050,1,4,4.15545,0,6340.334,20.4,
1572,SBT4050,1,4,4.15504,0,6340.334,20.3,
1572,SBT4050,1,4,4.154874,0,6340.334,20.4,
1572,SBT4050,1,4,4.154224,0,6340.334,20.4,
1572,SBT4050,1,4,4.15374,0,6340.334,20.3,
1572,SBT4050,1,4,4.15366,0,6340.334,20.3,
1572,SBT4050,1,4,4.15318,0,6340.334,20.4,
1572,SBT4050,1,4,3.778202,-7.499,6418.94,20.8,
1572,SBT4050,1,4,3.66378,-7.501,6583.515,22.4,
1572,SBT4050,1,4,3.595156,-7.501,6748.088,23.6,
1572,SBT4050,1,4,3.53366,-7.501,6912.658,24.4,
1572,SBT4050,1,4,3.474548,-7.499,7077.228,24.9,
1572,SBT4050,1,4,3.41956,-7.499,7241.799,25.1,
1572,SBT4050,1,4,3.36801,-7.499,7406.37,25.4,
1572,SBT4050,1,4,3.31629,-7.5,7570.942,25.4,
1572,SBT4050,1,4,3.25591,-7.499,7735.517,25.6,
1572,SBT4050,1,4,3.180685,-7.5,7900.088,25.9,
1572,SBT4050,1,4,3.08385,-7.501,8064.659,26.4,
1572,SBT4050,1,4,2.94019,-7.499,8229.23,27.3,
1572,SBT4050,1,4,2.675521,-7.499,8393.802,28.6,
1572,SBT4050,1,4,3.10766,0,8455.36,27.8,
1572,SBT4050,1,4,3.14003,0,8455.36,24.9,
1572,SBT4050,1,4,3.1523,0,8455.36,23.1,
1572,SBT4050,1,4,3.159375,0,8455.36,22,
1572,SBT4050,1,4,3.58358,4,8455.36,21.6,
1572,SBT4050,1,4,3.643,3.9997,8455.36,21.7,
1572,SBT4050,1,4,3.67882,4.0004,8455.36,21.9,
1572,SBT4050,1,4,3.71208,4,8455.36,22,
1572,SBT4050,1,4,3.744494,4,8455.36,22,
1572,SBT4050,1,4,3.77089,3.9998,8455.36,22,
1572,SBT4050,1,4,3.7945,3.9998,8455.36,22.1,
1572,SBT4050,1,4,3.82209,3.9998,8455.36,22.1,
1572,SBT4050,1,4,3.85341,3.9998,8455.36,22.2,
1572,SBT4050,1,4,3.88625,4,8455.36,22.3,
1572,SBT4050,1,4,3.92043,4.0004,8455.36,22.3,
1572,SBT4050,1,4,3.95743,4.0001,8455.36,22.4,
1572,SBT4050,1,4,3.99439,3.9998,8455.36,22.5,
1572,SBT4050,1,4,4.03265,4.0001,8455.36,22.6,
1572,SBT4050,1,4,4.069556,4,8455.36,22.6,
1572,SBT4050,1,4,4.10829,3.9992,8455.36,22.6,
1572,SBT4050,1,4,4.14914,3.9998,8455.36,22.7,
1572,SBT4050,1,4,4.194008,4.0003,8455.36,22.7,
1572,SBT4050,1,4,4.20025,3.1495,8455.36,22.7,
1572,SBT4050,1,4,4.2001,2.5102,8455.36,22.5,
1572,SBT4050,1,4,4.19999,2.0533,8455.36,22.1,
1572,SBT4050,1,4,4.200146,1.7143,8455.36,21.8,
1572,SBT4050,1,4,4.2001,1.4569,8455.36,21.5,
1572,SBT4050,1,4,4.19996,1.2533,8455.36,21.3,
1572,SBT4050,1,4,4.2001,1.0881,8455.36,21.1,
1572,SBT4050,1,4,4.19992,0.9541,8455.36,21,
1572,SBT4050,1,4,4.20011,0.8394,8455.36,20.8,
1572,SBT4050,1,4,4.20023,0.7448,8455.36,20.8,
1572,SBT4050,1,4,4.20009,0.664,8455.36,20.7,
1572,SBT4050,1,4,4.20019,0.5929,8455.36,20.6,
1572,SBT4050,1,4,4.20004,0.536,8455.36,20.6,
1572,SBT4050,1,4,4.19992,0.4844,8455.36,20.5,
1572,SBT4050,1,4,4.19987,0.44,8455.36,20.5,
1572,SBT4050,1,4,4.20035,0.39831,8455.36,20.5,
1572,SBT4050,1,4,4.19972,0.36617,8455.36,20.5,
1572,SBT4050,1,4,4.20028,0.3338,8455.36,20.5,
1572,SBT4050,1,4,4.20025,0.3092,8455.36,20.4,
1572,SBT4050,1,4,4.200122,0.28497,8455.36,20.5,
1572,SBT4050,1,4,4.20009,0.26424,8455.36,20.5,
1572,SBT4050,1,4,4.19999,0.24561,8455.36,20.5,
1572,SBT4050,1,4,4.2001,0.22918,8455.36,20.5,
1572,SBT4050,1,4,4.2,0.21391,8455.36,20.5,
1572,SBT4050,1,4,4.200158,0.20267,8455.36,20.5,
1572,SBT4050,1,4,4.200146,0.18928,8455.36,20.4,
1572,SBT4050,1,4,4.200146,0.17586,8455.36,20.4,
1572,SBT4050,1,4,4.20024,0.16703,8455.36,20.4,
1572,SBT4050,1,4,4.200134,0.15768,8455.36,20.4,
1572,SBT4050,1,4,4.200122,0.14825,8455.36,20.4,
1572,SBT4050,1,4,4.19978,0.14102,8455.36,20.4,
1572,SBT4050,1,4,4.19997,0.13281,8455.36,20.4,
1572,SBT4050,1,4,4.19991,0.12685,8455.36,20.4,
1572,SBT4050,1,4,4.19996,0.12112,8455.36,20.4,
1572,SBT4050,1,4,4.20023,0.11526,8455.36,20.5,
1572,SBT4050,1,4,4.20001,0.1085,8455.36,20.4,
1572,SBT4050,1,4,4.19997,0.10538,8455.36,20.4,
1572,SBT4050,1,4,4.19991,0.10213,8455.36,20.4,
1572,SBT4050,1,4,4.19276,0,8455.36,20.4,
1572,SBT4050,1,4,4.18944,0,8455.36,20.4,
1572,SBT4050,1,4,4.18688,0,8455.36,20.4,
1572,SBT4050,1,4,4.18478,0,8455.36,20.5,
1572,SBT4050,1,4,4.18272,0,8455.36,20.5,
1572,SBT4050,1,4,4.18133,0,8455.36,20.5,
1572,SBT4050,1,4,4.17953,0,8455.36,20.4,
1572,SBT4050,1,4,4.17829,0,8455.36,20.4,
1572,SBT4050,1,4,4.17676,0,8455.36,20.4,
1572,SBT4050,1,4,4.17565,0,8455.36,20.4,
1572,SBT4050,1,4,4.174416,0,8455.36,20.4,
1572,SBT4050,1,4,4.1731,0,8455.36,20.4,
1572,SBT4050,1,4,4.17222,0,8455.36,20.4,
1572,SBT4050,1,4,4.17097,0,8455.36,20.4,
1572,SBT4050,1,4,4.1706,0,8455.36,20.4,
1572,SBT4050,1,4,4.169404,0,8455.36,20.4,
1572,SBT4050,1,4,4.16846,0,8455.36,20.4,
1572,SBT4050,1,4,4.16774,0,8455.36,20.4,
1572,SBT4050,1,4,4.16703,0,8455.36,20.4,
1572,SBT4050,1,4,4.16619,0,8455.36,20.3,
1572,SBT4050,1,4,4.16541,0,8455.36,20.3,
1572,SBT4050,1,4,4.16475,0,8455.36,20.3,
1572,SBT4050,1,4,4.1638,0,8455.36,20.3,
1572,SBT4050,1,4,4.16327,0,8455.36,20.3,
1572,SBT4050,1,4,4.16296,0,8455.36,20.3,
1572,SBT4050,1,4,4.16237,0,8455.36,20.3,
1572,SBT4050,1,4,4.16176,0,8455.36,20.2,
1572,SBT4050,1,4,4.16121,0,8455.36,20.2,
1572,SBT4050,1,4,4.1604,0,8455.36,20.3,
1572,SBT4050,1,4,4.15987,0,8455.36,20.3,
1572,SBT4050,1,4,4.15962,0,8455.36,20.3,
1572,SBT4050,1,4,4.15891,0,8455.36,20.3,
1572,SBT4050,1,4,4.15872,0,8455.36,20.4,
1572,SBT4050,1,4,4.15806,0,8455.36,20.4,
1572,SBT4050,1,4,4.15775,0,8455.36,20.3,
1572,SBT4050,1,4,4.157256,0,8455.36,20.4,
1572,SBT4050,1,4,4.15677,0,8455.36,20.4,
1572,SBT4050,1,4,4.156,0,8455.36,20.5,
1572,SBT4050,1,4,4.15586,0,8455.36,20.4,
1572,SBT4050,1,4,4.1553,0,8455.36,20.4,
1572,SBT4050,1,4,4.155386,0,8455.36,20.4,
1572,SBT4050,1,4,4.15469,0,8455.36,20.5,
1572,SBT4050,1,4,4.15458,0,8455.36,20.4,
1572,SBT4050,1,4,4.15438,0,8455.36,20.4,
1572,SBT4050,1,4,4.15356,0,8455.36,20.4,
1572,SBT4050,1,4,3.92428,-4.999,8482.826,20.6,
1572,SBT4050,1,4,3.81199,-5,8592.537,21.3,
1572,SBT4050,1,4,3.74692,-4.999,8702.248,22,
1572,SBT4050,1,4,3.69846,-5,8811.96,22.4,
1572,SBT4050,1,4,3.6548,-4.999,8921.672,22.8,
1572,SBT4050,1,4,3.613656,-4.999,9031.384,23.1,
1572,SBT4050,1,4,3.572908,-4.999,9141.095,23.1,
1572,SBT4050,1,4,3.53304,-5.002,9250.806,23.3,
1572,SBT4050,1,4,3.49508,-4.999,9360.517,23.3,
1572,SBT4050,1,4,3.45903,-4.999,9470.228,23.4,
1572,SBT4050,1,4,3.424524,-5,9579.938,23.4,
1572,SBT4050,1,4,3.39065,-5,9689.649,23.3,
1572,SBT4050,1,4,3.355101,-5,9799.36,23.3,
1572,SBT4050,1,4,3.315063,-5,9909.07,23.5,
1572,SBT4050,1,4,3.26602,-4.999,10018.78,23.6,
1572,SBT4050,1,4,3.20503,-5,10128.492,23.9,
1572,SBT4050,1,4,3.12652,-5,10238.204,24.3,
1572,SBT4050,1,4,3.01282,-5,10347.916,24.8,
1572,SBT4050,1,4,2.84442,-4.999,10457.626,25.6,
1572,SBT4050,1,4,2.558689,-5,10567.338,26.4,
1572,SBT4050,1,4,3.07641,0,10582.795,25.1,
1572,SBT4050,1,4,3.10453,0,10582.795,23.3,
1572,SBT4050,1,4,3.11741,0,10582.795,22.2,
1572,SBT4050,1,4,3.33079,4.0001,10582.795,21.5,
1572,SBT4050,1,4,3.60141,3.9995,10582.795,21.5,
1572,SBT4050,1,4,3.647926,4.0004,10582.795,21.7,
1572,SBT4050,1,4,3.68256,4.0003,10582.795,21.9,
1572,SBT4050,1,4,3.71572,3.9994,10582.795,22,
1572,SBT4050,1,4,3.748,4.0004,10582.795,22,
1572,SBT4050,1,4,3.77409,3.9995,10582.795,21.9,
1572,SBT4050,1,4,3.79887,3.9996,10582.795,21.9,
1572,SBT4050,1,4,3.82722,3.9999,10582.795,21.9,
1572,SBT4050,1,4,3.85905,3.9999,10582.795,21.9,
1572,SBT4050,1,4,3.89233,4,10582.795,22,
1572,SBT4050,1,4,3.92772,4,10582.795,21.9,
1572,SBT4050,1,4,3.96418,3.9994,10582.795,22,
1572,SBT4050,1,4,4.00153,3.9995,10582.795,22,
1572,SBT4050,1,4,4.03954,3.9997,10582.795,22.1,
1572,SBT4050,1,4,4.07776,4.0003,10582.795,21.9,
1572,SBT4050,1,4,4.117244,4.0003,10582.795,22,
1572,SBT4050,1,4,4.15924,4.0003,10582.795,21.9,
1572,SBT4050,1,4,4.20023,3.867,10582.795,22,
1572,SBT4050,1,4,4.2001,2.9933,10582.795,21.9,
1572,SBT4050,1,4,4.20017,2.3897,10582.795,21.4,
1572,SBT4050,1,4,4.200194,1.9636,10582.795,21.1,
1572,SBT4050,1,4,4.200468,1.6486,10582.795,20.6,
1572,SBT4050,1,4,4.20011,1.4015,10582.795,20.4,
1572,SBT4050,1,4,4.200182,1.2117,10582.795,20,
1572,SBT4050,1,4,4.200182,1.0504,10582.795,19.9,
1572,SBT4050,1,4,4.20023,0.9229,10582.795,19.7,
1572,SBT4050,1,4,4.200468,0.8172,10582.795,19.6,
1572,SBT4050,1,4,4.200194,0.7274,10582.795,19.5,
1572,SBT4050,1,4,4.20005,0.6505,10582.795,19.4,
1572,SBT4050,1,4,4.19999,0.5856,10582.795,19.4,
1572,SBT4050,1,4,4.19993,0.5308,10582.795,19.4,
1572,SBT4050,1,4,4.200182,0.4821,10582.795,19.4,
1572,SBT4050,1,4,4.20003,0.43901,10582.795,19.3,
1572,SBT4050,1,4,4.20003,0.40389,10582.795,19.4,
1572,SBT4050,1,4,4.20022,0.37049,10582.795,19.4,
1572,SBT4050,1,4,4.19998,0.34091,10582.795,19.4,
1572,SBT4050,1,4,4.20012,0.31475,10582.795,19.5,
1572,SBT4050,1,4,4.19994,0.29501,10582.795,19.4,
1572,SBT4050,1,4,4.19998,0.27201,10582.795,19.4,
1572,SBT4050,1,4,4.19981,0.25298,10582.795,19.5,
1572,SBT4050,1,4,4.20011,0.23605,10582.795,19.5,
1572,SBT4050,1,4,4.20024,0.22086,10582.795,19.5,
1572,SBT4050,1,4,4.20009,0.20813,10582.795,19.5,
1572,SBT4050,1,4,4.20004,0.19624,10582.795,19.5,
1572,SBT4050,1,4,4.200146,0.18522,10582.795,19.5,
1572,SBT4050,1,4,4.19997,0.17402,10582.795,19.5,
1572,SBT4050,1,4,4.20004,0.1635,10582.795,19.6,
1572,SBT4050,1,4,4.20002,0.15482,10582.795,19.6,
1572,SBT4050,1,4,4.20006,0.14708,10582.795,19.6,
1572,SBT4050,1,4,4.20007,0.139,10582.795,19.5,
1572,SBT4050,1,4,4.2001,0.13122,10582.795,19.5,
1572,SBT4050,1,4,4.20007,0.12552,10582.795,19.5,
1572,SBT4050,1,4,4.2,0.12225,10582.795,19.5,
1572,SBT4050,1,4,4.20023,0.11335,10582.795,19.5,
1572,SBT4050,1,4,4.20029,0.10927,10582.795,19.5,
1572,SBT4050,1,4,4.20005,0.10401,10582.795,19.5,
1572,SBT4050,1,4,4.19996,0.10206,10582.795,19.5,
1572,SBT4050,1,4,4.1935,0,10582.795,19.6,
1572,SBT4050,1,4,4.18978,0,10582.795,19.5,
1572,SBT4050,1,4,4.1873,0,10582.795,19.6,
1572,SBT4050,1,4,4.18548,0,10582.795,19.6,
1572,SBT4050,1,4,4.18334,0,10582.795,19.6,
1572,SBT4050,1,4,4.18144,0,10582.795,19.6,
1572,SBT4050,1,4,4.18003,0,10582.795,19.6,
1572,SBT4050,1,4,4.1784,0,10582.795,19.6,
1572,SBT4050,1,4,4.17725,0,10582.795,19.6,
1572,SBT4050,1,4,4.17574,0,10582.795,19.5,
1572,SBT4050,1,4,4.17458,0,10582.795,19.5,
1572,SBT4050,1,4,4.17352,0,10582.795,19.6,
1572,SBT4050,1,4,4.17211,0,10582.795,19.6,
1572,SBT4050,1,4,4.171198,0,10582.795,19.6,
1572,SBT4050,1,4,4.1703,0,10582.795,19.6,
1572,SBT4050,1,4,4.16949,0,10582.795,19.5,
1572,SBT4050,1,4,4.16832,0,10582.795,19.6,
1572,SBT4050,1,4,4.167466,0,10582.795,19.6,
1572,SBT4050,1,4,4.166874,0,10582.795,19.6,
1572,SBT4050,1,4,4.16617,0,10582.795,19.5,
1572,SBT4050,1,4,4.165288,0,10582.795,19.5,
1572,SBT4050,1,4,4.16459,0,10582.795,19.6,
1572,SBT4050,1,4,4.16412,0,10582.795,19.6,
1572,SBT4050,1,4,4.16296,0,10582.795,19.5,
1572,SBT4050,1,4,4.16236,0,10582.795,19.5,
1572,SBT4050,1,4,4.16231,0,10582.795,19.5,
1572,SBT4050,1,4,4.16154,0,10582.795,19.5,
1572,SBT4050,1,4,4.16066,0,10582.795,19.6,
1572,SBT4050,1,4,4.16036,0,10582.795,19.6,
1572,SBT4050,1,4,4.15958,0,10582.795,19.6,
1572,SBT4050,1,4,4.15902,0,10582.795,19.6,
1572,SBT4050,1,4,4.1587,0,10582.795,19.5,
1572,SBT4050,1,4,4.15821,0,10582.795,19.6,
1572,SBT4050,1,4,4.157524,0,10582.795,19.6,
1572,SBT4050,1,4,4.15755,0,10582.795,19.5,
1572,SBT4050,1,4,4.15665,0,10582.795,19.5,
1572,SBT4050,1,4,4.15646,0,10582.795,19.5,
1572,SBT4050,1,4,4.15586,0,10582.795,19.6,
1572,SBT4050,1,4,4.15577,0,10582.795,19.5,
1572,SBT4050,1,4,4.15492,0,10582.795,19.5,
1572,SBT4050,1,4,4.154782,0,10582.795,19.5,
1572,SBT4050,1,4,4.15445,0,10582.795,19.5,
1572,SBT4050,1,4,4.153784,0,10582.795,19.5,
1572,SBT4050,1,4,4.15366,0,10582.795,19.6,
1572,SBT4050,1,4,4.15317,0,10582.795,19.5,
1572,SBT4050,1,4,4.15271,-0.0001,10582.795,,
1572,SBT4050,1,4,3.972584,-2.4998,10637.553,19.7,
1572,SBT4050,1,4,3.92431,-2.5002,10692.413,19.9,
1572,SBT4050,1,4,3.8883,-2.5001,10747.273,20,
1572,SBT4050,1,4,3.859338,-2.5003,10802.133,20.2,
1572,SBT4050,1,4,3.83308,-2.4999,10856.993,20.2,
1572,SBT4050,1,4,3.80839,-2.5002,10911.853,20.4,
1572,SBT4050,1,4,3.78497,-2.4999,10966.713,20.4,
1572,SBT4050,1,4,3.76274,-2.4999,11021.573,20.5,
1572,SBT4050,1,4,3.741228,-2.5001,11076.433,20.4,
1572,SBT4050,1,4,3.720306,-2.4997,11131.293,20.6,
1572,SBT4050,1,4,3.699792,-2.5,11186.153,20.5,
1572,SBT4050,1,4,3.67936,-2.5,11241.014,20.5,
1572,SBT4050,1,4,3.65867,-2.4999,11295.874,20.5,
1572,SBT4050,1,4,3.63884,-2.4998,11350.733,20.6,
1572,SBT4050,1,4,3.61945,-2.4996,11405.593,20.5,
1572,SBT4050,1,4,3.59983,-2.5,11460.453,20.4,
1572,SBT4050,1,4,3.580944,-2.4999,11515.313,20.5,
1572,SBT4050,1,4,3.56317,-2.4996,11570.173,20.4,
1572,SBT4050,1,4,3.54579,-2.5003,11625.033,20.3,
1572,SBT4050,1,4,3.52937,-2.4999,11679.893,20.4,
1572,SBT4050,1,4,3.51318,-2.5003,11734.753,20.3,
1572,SBT4050,1,4,3.497552,-2.5,11789.613,20.4,
1572,SBT4050,1,4,3.48194,-2.5001,11844.473,20.4,
1572,SBT4050,1,4,3.46602,-2.4999,11899.333,20.5,
1572,SBT4050,1,4,3.44918,-2.5,11954.193,20.5,
1572,SBT4050,1,4,3.43204,-2.4999,12009.053,20.5,
1572,SBT4050,1,4,3.41284,-2.4999,12063.912,20.6,
1572,SBT4050,1,4,3.39257,-2.5,12118.772,20.6,
1572,SBT4050,1,4,3.3692,-2.5001,12173.632,20.6,
1572,SBT4050,1,4,3.34248,-2.5002,12228.492,20.7,
1572,SBT4050,1,4,3.31212,-2.4999,12283.352,20.8,
1572,SBT4050,1,4,3.275219,-2.5001,12338.212,20.8,
1572,SBT4050,1,4,3.2299,-2.5002,12393.072,21,
1572,SBT4050,1,4,3.17227,-2.4999,12447.932,21,
1572,SBT4050,1,4,3.09974,-2.4999,12502.792,21.3,
1572,SBT4050,1,4,3.00899,-2.5004,12557.652,21.6,
1572,SBT4050,1,4,2.893718,-2.4997,12612.512,22,
1572,SBT4050,1,4,2.74151,-2.4997,12667.372,22.2,
1572,SBT4050,1,4,2.52496,-2.4995,12722.231,22.7,
1572,SBT4050,1,4,2.99466,0,12727.101,22,
1572,SBT4050,1,4,3.02684,0,12727.101,21.1,
1572,SBT4050,1,4,3.04284,0,12727.101,20.7,
1572,SBT4050,1,4,3.3208,3.9996,12727.101,20.4,
1572,SBT4050,1,4,3.59466,4.0004,12727.101,20.6,
1572,SBT4050,1,4,3.64707,4.0001,12727.101,21.1,
1572,SBT4050,1,4,3.680908,4.0003,12727.101,21.3,
1572,SBT4050,1,4,3.71418,4.0004,12727.101,21.5,
1572,SBT4050,1,4,3.746312,4.0004,12727.101,21.5,
1572,SBT4050,1,4,3.77371,4,12727.101,21.7,
1572,SBT4050,1,4,3.79778,4.0004,12727.101,21.6,
1572,SBT4050,1,4,3.82518,4.0006,12727.101,21.7,
1572,SBT4050,1,4,3.85664,3.9995,12727.101,21.7,
1572,SBT4050,1,4,3.88952,4.0001,12727.101,21.9,
1572,SBT4050,1,4,3.92326,3.9998,12727.101,22,
1572,SBT4050,1,4,3.9591,4,12727.101,22.1,
1572,SBT4050,1,4,3.99553,4.0001,12727.101,22.2,
1572,SBT4050,1,4,4.03314,4,12727.101,22.1,
1572,SBT4050,1,4,4.07001,4.0001,12727.101,22.3,
1572,SBT4050,1,4,4.10774,4,12727.101,22.3,
1572,SBT4050,1,4,4.14825,3.9997,12727.101,22.3,
1572,SBT4050,1,4,4.19262,3.9997,12727.101,22.4,
1572,SBT4050,1,4,4.20016,3.1852,12727.101,22.4,
1572,SBT4050,1,4,4.20027,2.5377,12727.101,22.1,
1572,SBT4050,1,4,4.20009,2.0778,12727.101,21.8,
1572,SBT4050,1,4,4.20014,1.7388,12727.101,21.4,
1572,SBT4050,1,4,4.200236,1.4765,12727.101,21.2,
1572,SBT4050,1,4,4.19996,1.2712,12727.101,20.9,
1572,SBT4050,1,4,4.19985,1.1056,12727.101,20.7,
1572,SBT4050,1,4,4.20003,0.9671,12727.101,20.5,
1572,SBT4050,1,4,4.20018,0.8529,12727.101,20.5,
1572,SBT4050,1,4,4.20015,0.758,12727.101,20.4,
1572,SBT4050,1,4,4.20013,0.6766,12727.101,20.3,
1572,SBT4050,1,4,4.20005,0.6053,12727.101,20.2,
1572,SBT4050,1,4,4.19984,0.545,12727.101,20,
1572,SBT4050,1,4,4.20016,0.4912,12727.101,20,
1572,SBT4050,1,4,4.199878,0.44649,12727.101,20,
1572,SBT4050,1,4,4.20014,0.40708,12727.101,20,
1572,SBT4050,1,4,4.2002,0.37139,12727.101,20,
1572,SBT4050,1,4,4.2001,0.34127,12727.101,19.9,
1572,SBT4050,1,4,4.19996,0.31573,12727.101,19.9,
1572,SBT4050,1,4,4.20003,0.2908,12727.101,19.9,
1572,SBT4050,1,4,4.20009,0.27045,12727.101,19.9,
1572,SBT4050,1,4,4.20031,0.2509,12727.101,19.9,
1572,SBT4050,1,4,4.20012,0.23428,12727.101,19.8,
1572,SBT4050,1,4,4.20001,0.21797,12727.101,19.9,
1572,SBT4050,1,4,4.200236,0.20408,12727.101,19.8,
1572,SBT4050,1,4,4.200236,0.19222,12727.101,19.8,
1572,SBT4050,1,4,4.20001,0.18113,12727.101,19.7,
1572,SBT4050,1,4,4.20009,0.16982,12727.101,19.7,
1572,SBT4050,1,4,4.19996,0.15932,12727.101,19.8,
1572,SBT4050,1,4,4.20002,0.15349,12727.101,19.7,
1572,SBT4050,1,4,4.199926,0.14535,12727.101,19.8,
1572,SBT4050,1,4,4.20019,0.13577,12727.101,19.8,
1572,SBT4050,1,4,4.199878,0.13063,12727.101,19.8,
1572,SBT4050,1,4,4.19997,0.12283,12727.101,19.7,
1572,SBT4050,1,4,4.199926,0.11736,12727.101,19.7,
1572,SBT4050,1,4,4.20006,0.11208,12727.101,19.8,
1572,SBT4050,1,4,4.19995,0.10764,12727.101,19.8,
1572,SBT4050,1,4,4.19979,0.10312,12727.101,19.8,
1572,SBT4050,1,4,4.19418,0,12727.101,19.7,
1572,SBT4050,1,4,4.19041,0,12727.101,19.7,
1572,SBT4050,1,4,4.18765,0,12727.101,19.7,
1572,SBT4050,1,4,4.18538,0,12727.101,19.7,
1572,SBT4050,1,4,4.18346,0,12727.101,19.7,
1572,SBT4050,1,4,4.181512,0,12727.101,19.6,
1572,SBT4050,1,4,4.17968,0,12727.101,19.6,
1572,SBT4050,1,4,4.17841,0,12727.101,19.6,
1572,SBT4050,1,4,4.17703,0,12727.101,19.7,
1572,SBT4050,1,4,4.17591,0,12727.101,19.6,
1572,SBT4050,1,4,4.17444,0,12727.101,19.7,
1572,SBT4050,1,4,4.17335,0,12727.101,19.7,
1572,SBT4050,1,4,4.17238,0,12727.101,19.8,
1572,SBT4050,1,4,4.17157,0,12727.101,19.7,
1572,SBT4050,1,4,4.16977,0,12727.101,19.9,
1572,SBT4050,1,4,4.16934,0,12727.101,19.8,
1572,SBT4050,1,4,4.16847,0,12727.101,19.8,
1572,SBT4050,1,4,4.16745,0,12727.101,19.8,
1572,SBT4050,1,4,4.16659,0,12727.101,19.8,
1572,SBT4050,1,4,4.16575,0,12727.101,19.9,
1572,SBT4050,1,4,4.16519,0,12727.101,19.8,
1572,SBT4050,1,4,4.16448,0,12727.101,19.9,
1572,SBT4050,1,4,4.16342,0,12727.101,19.9,
1572,SBT4050,1,4,4.16314,0,12727.101,19.9,
1572,SBT4050,1,4,4.16239,0,12727.101,19.8,
1572,SBT4050,1,4,4.161806,0,12727.101,19.9,
1572,SBT4050,1,4,4.16129,0,12727.101,19.9,
1572,SBT4050,1,4,4.16081,0,12727.101,19.9,
1572,SBT4050,1,4,4.16032,0,12727.101,19.9,
1572,SBT4050,1,4,4.15928,0,12727.101,19.9,
1572,SBT4050,1,4,4.15899,0,12727.101,19.9,
1572,SBT4050,1,4,4.15839,0,12727.101,19.9,
1572,SBT4050,1,4,4.15803,0,12727.101,19.8,
1572,SBT4050,1,4,4.15743,0,12727.101,19.8,
1572,SBT4050,1,4,4.15693,0,12727.101,19.7,
1572,SBT4050,1,4,4.15628,0,12727.101,19.7,
1572,SBT4050,1,4,4.15604,0,12727.101,19.7,
1572,SBT4050,1,4,4.155798,0,12727.101,19.6,
1572,SBT4050,1,4,4.15532,0,12727.101,19.5,
1572,SBT4050,1,4,4.15493,0,12727.101,19.4,
1572,SBT4050,1,4,4.154332,0,12727.101,19.4,
1572,SBT4050,1,4,4.15402,0,12727.101,19.4,
1572,SBT4050,1,4,4.15363,0,12727.101,19.5,
1572,SBT4050,1,4,4.1534,0,12727.101,19.5,
1572,SBT4050,1,4,4.153026,0,12727.101,19.5,
1572,SBT4050,1,4,4.15257,0,12727.101,19.5,
1572,SBT4050,1,4,3.86374,-5.314,12782.703,19.7,
1572,SBT4050,1,4,4.02342,-0.039998,12854.537,20.4,
1572,SBT4050,1,4,3.5967,-10.166,12975.198,21.4,
1572,SBT4050,1,4,3.85785,0.43795,13089.152,22.3,
1572,SBT4050,1,4,3.79822,-1.6342,13145.184,21.9,
1572,SBT4050,1,4,3.547776,-10.306,13212.203,21.6,
1572,SBT4050,1,4,3.67287,-4.6744,13282.611,21.7,
1572,SBT4050,1,4,3.86555,2.4782,13353.696,21.5,
1572,SBT4050,1,4,3.71824,-3.7419,13397.757,21.4,
1572,SBT4050,1,4,3.47348,-10.118,13495.817,21.5,
1572,SBT4050,1,4,3.48262,-7.285,13606.106,21.8,
1572,SBT4050,1,4,3.510042,-4.551,13717.385,22,
1572,SBT4050,1,4,3.55725,-1.6171,13817.69,22,
1572,SBT4050,1,4,3.58005,-1.606,13867.201,21.8,
1572,SBT4050,1,4,3.36339,-9.921,13939.337,21.6,
1572,SBT4050,1,4,3.60084,-0.18398,14002.935,21.4,
1572,SBT4050,1,4,3.58905,-0.08898,14075.61,21.4,
1572,SBT4050,1,4,3.48605,-2.6678,14132.43,21,
1572,SBT4050,1,4,3.6283,4.0004,14243.846,21.7,
1572,SBT4050,1,4,2.98207,-14.499,14321.309,21.6,
1572,SBT4050,1,4,3.140246,-9.479,14432.427,22.9,
1572,SBT4050,1,4,3.08827,-12.043,14467.935,22.1,
1572,SBT4050,1,4,3.50211,-0.10399,14534.118,22.6,
1572,SBT4050,1,4,3.39501,-3.8162,14584.811,22.4,
1572,SBT4050,1,4,3.12538,-7.365,14671.533,22.3,
1572,SBT4050,1,4,3.61937,4,14707.798,22,
1572,SBT4050,1,4,3.60648,4.0003,14749.986,21.8,
1572,SBT4050,1,4,3.57765,2.4937,14778.556,21.5,
1572,SBT4050,1,4,3.34744,-0.847,14860.92,21.9,
1572,SBT4050,1,4,3.62708,3.9995,14878.73,21.5,
1572,SBT4050,1,4,3.51857,2.3511,14898.982,21.3,
1572,SBT4050,1,4,3.5849,2.422,14916.943,21,
1572,SBT4050,1,4,3.29805,-1.91,14974.054,21.3,
1572,SBT4050,1,4,3.62375,3.9999,14983.646,21.1,
1572,SBT4050,1,4,3.477628,-0.04999,14996.053,20.9,
1572,SBT4050,1,4,3.472896,-0.035984,14997.047,20.6,
1572,SBT4050,1,4,3.47166,-0.04999,14998.05,20.4,
1572,SBT4050,1,4,3.4721,-0.035987,14998.984,20.4,
1572,SBT4050,1,4,3.47202,-0.037996,14999.874,20.3,
1572,SBT4050,1,4,3.47189,-0.040003,15000.742,20.3,
1572,SBT4050,1,4,3.47169,-0.035987,15001.617,20.2,
1572,SBT4050,1,4,3.47161,-0.037999,15002.413,20.2,
1572,SBT4050,1,4,3.47172,-0.035986,15003.207,20.2,
1572,SBT4050,1,4,3.47133,-0.039003,15003.98,20.2,
1572,SBT4050,1,4,3.47407,0,15004.181,20.2,
1572,SBT4050,1,4,3.47477,0,15004.181,20.1,
1572,SBT4050,1,4,3.47511,0,15004.181,20.1,
1572,SBT4050,1,4,3.475556,0,15004.181,20.1,
1572,SBT4050,1,4,3.694218,4,15004.181,20.4,
1572,SBT4050,1,4,3.74013,4.0002,15004.181,20.8,
1572,SBT4050,1,4,3.774962,3.9997,15004.181,21.1,
1572,SBT4050,1,4,3.79966,4,15004.181,21.3,
1572,SBT4050,1,4,3.82834,4.0002,15004.181,21.6,
1572,SBT4050,1,4,3.86142,4.0004,15004.181,21.7,
1572,SBT4050,1,4,3.896944,4.0002,15004.181,21.9,
1572,SBT4050,1,4,3.9341,3.9996,15004.181,22,
1572,SBT4050,1,4,3.97297,4.0004,15004.181,22,
1572,SBT4050,1,4,4.01242,3.9996,15004.181,22.2,
1572,SBT4050,1,4,4.052378,3.9998,15004.181,22.3,
1572,SBT4050,1,4,4.09148,3.9997,15004.181,22.4,
1572,SBT4050,1,4,4.13195,3.9999,15004.181,22.5,
1572,SBT4050,1,4,4.17624,4.0002,15004.181,22.5,
1572,SBT4050,1,4,4.20003,3.4571,15004.181,22.5,
1572,SBT4050,1,4,4.20028,2.7199,15004.181,22.4,
1572,SBT4050,1,4,4.19998,2.194,15004.181,22,
1572,SBT4050,1,4,4.20013,1.8149,15004.181,21.6,
1572,SBT4050,1,4,4.20033,1.531,15004.181,21.3,
1572,SBT4050,1,4,4.20004,1.3086,15004.181,21.1,
1572,SBT4050,1,4,4.20006,1.1336,15004.181,21,
1572,SBT4050,1,4,4.20002,0.9912,15004.181,20.7,
1572,SBT4050,1,4,4.200158,0.8706,15004.181,20.6,
1572,SBT4050,1,4,4.20011,0.7724,15004.181,20.5,
1572,SBT4050,1,4,4.20002,0.6873,15004.181,20.5,
1572,SBT4050,1,4,4.20012,0.6159,15004.181,20.4,
1572,SBT4050,1,4,4.20029,0.5575,15004.181,20.4,
1572,SBT4050,1,4,4.20004,0.5021,15004.181,20.3,
1572,SBT4050,1,4,4.20006,0.45663,15004.181,20.3,
1572,SBT4050,1,4,4.19994,0.41757,15004.181,20.3,
1572,SBT4050,1,4,4.20012,0.37987,15004.181,20.3,
1572,SBT4050,1,4,4.19999,0.35119,15004.181,20.2,
1572,SBT4050,1,4,4.199896,0.32267,15004.181,20.2,
1572,SBT4050,1,4,4.20017,0.29657,15004.181,20.2,
1572,SBT4050,1,4,4.20017,0.27635,15004.181,20.2,
1572,SBT4050,1,4,4.2001,0.25804,15004.181,20.2,
1572,SBT4050,1,4,4.20011,0.23951,15004.181,20.2,
1572,SBT4050,1,4,4.19982,0.22426,15004.181,20.2,
1572,SBT4050,1,4,4.20034,0.2084,15004.181,20.2,
1572,SBT4050,1,4,4.20006,0.19529,15004.181,20.2,
1572,SBT4050,1,4,4.20007,0.18408,15004.181,20.2,
1572,SBT4050,1,4,4.19984,0.17578,15004.181,20.2,
1572,SBT4050,1,4,4.20002,0.16447,15004.181,20.2,
1572,SBT4050,1,4,4.20035,0.15333,15004.181,20.2,
1572,SBT4050,1,4,4.19993,0.14693,15004.181,20.2,
1572,SBT4050,1,4,4.200182,0.13987,15004.181,20.2,
1572,SBT4050,1,4,4.19999,0.13154,15004.181,20.2,
1572,SBT4050,1,4,4.20006,0.12774,15004.181,20.3,
1572,SBT4050,1,4,4.20004,0.12092,15004.181,20.2,
1572,SBT4050,1,4,4.20011,0.11432,15004.181,20.2,
1572,SBT4050,1,4,4.20002,0.1083,15004.181,20.3,
1572,SBT4050,1,4,4.199848,0.10573,15004.181,20.2,
1572,SBT4050,1,4,4.19573,0,15004.181,20.2,
1572,SBT4050,1,4,4.19142,0,15004.181,20.3,
1572,SBT4050,1,4,4.18867,0,15004.181,20.3,
1572,SBT4050,1,4,4.18595,0,15004.181,20.4,
1572,SBT4050,1,4,4.18375,0,15004.181,20.3,
1572,SBT4050,1,4,4.18182,0,15004.181,20.3,
1572,SBT4050,1,4,4.18003,0,15004.181,20.3,
1572,SBT4050,1,4,4.17854,0,15004.181,20.4,
1572,SBT4050,1,4,4.17724,0,15004.181,20.4,
1572,SBT4050,1,4,4.17578,0,15004.181,20.4,
1572,SBT4050,1,4,4.17432,0,15004.181,20.4,
1572,SBT4050,1,4,4.17325,0,15004.181,20.4,
1572,SBT4050,1,4,4.17225,0,15004.181,20.5,
1572,SBT4050,1,4,4.171208,0,15004.181,20.4,
1572,SBT4050,1,4,4.17072,0,15004.181,20.4,
1572,SBT4050,1,4,4.1694,0,15004.181,20.4,
1572,SBT4050,1,4,4.16779,0,15004.181,20.5,
1572,SBT4050,1,4,4.16755,0,15004.181,20.4,
1572,SBT4050,1,4,4.16631,0,15004.181,20.6,
1572,SBT4050,1,4,4.16619,0,15004.181,20.6,
1572,SBT4050,1,4,4.16474,0,15004.181,20.6,
1572,SBT4050,1,4,4.16394,0,15004.181,20.6,
1572,SBT4050,1,4,4.16351,0,15004.181,20.6,
1572,SBT4050,1,4,4.16278,0,15004.181,20.6,
1572,SBT4050,1,4,4.16224,0,15004.181,20.7,
1572,SBT4050,1,4,4.16178,0,15004.181,20.7,
1572,SBT4050,1,4,4.16074,0,15004.181,20.7,
1572,SBT4050,1,4,4.16031,0,15004.181,20.8,
1572,SBT4050,1,4,4.15979,0,15004.181,20.7,
1572,SBT4050,1,4,4.15931,0,15004.181,20.8,
1572,SBT4050,1,4,4.15845,0,15004.181,20.8,
1572,SBT4050,1,4,4.15835,0,15004.181,20.8,
1572,SBT4050,1,4,4.15761,0,15004.181,20.8,
1572,SBT4050,1,4,4.15688,0,15004.181,20.8,
1572,SBT4050,1,4,4.15643,0,15004.181,20.8,
1572,SBT4050,1,4,4.156406,0,15004.181,20.8,
1572,SBT4050,1,4,4.15582,0,15004.181,20.8,
1572,SBT4050,1,4,4.15507,0,15004.181,20.8,
1572,SBT4050,1,4,4.15495,0,15004.181,20.9,
1572,SBT4050,1,4,4.15441,0,15004.181,20.9,
1572,SBT4050,1,4,4.15371,0,15004.181,20.9,
1572,SBT4050,1,4,4.15346,0,15004.181,20.9,
1572,SBT4050,1,4,4.15322,0,15004.181,21,
1572,SBT4050,1,4,4.152756,0,15004.181,20.9,
1572,SBT4050,1,4,4.15252,0,15004.181,20.9,
1572,SBT4050,1,4,4.15219,0,15004.181,20.9,
1572,SBT4050,1,4,4.157694,0.888,15033.148,21.2,
1572,SBT4050,1,4,4.17234,3.9997,15129.315,22.5,
1572,SBT4050,1,4,3.80975,-4.1923,15227.941,22.8,
1572,SBT4050,1,4,3.78456,-3.9619,15311.907,22.8,
1572,SBT4050,1,4,3.73562,-2.8684,15447.916,23.7,
1572,SBT4050,1,4,3.702266,-2.995,15550.38,23.7,
1572,SBT4050,1,4,3.72841,-4.6052,15591.339,23.2,
1572,SBT4050,1,4,3.829756,0.14399,15662.365,23.3,
1572,SBT4050,1,4,3.72496,-0.5759,15745.871,23.2,
1572,SBT4050,1,4,3.625,-3.456,15836.032,23.8,
1572,SBT4050,1,4,3.57637,-4.7581,15920.185,23.6,
1572,SBT4050,1,4,3.71219,0.000999,15964.539,22.9,
1572,SBT4050,1,4,3.71711,-0.935,15984.045,22.5,
1572,SBT4050,1,4,3.86606,3.9997,15989.233,22.1,
1572,SBT4050,1,4,3.56429,-7.644,16020.167,22,
1572,SBT4050,1,4,3.81379,3.0701,16078.543,22.2,
1572,SBT4050,1,4,3.85606,3.9998,16131.027,22.4,
1572,SBT4050,1,4,3.63557,-4.5408,16172.238,22.5,
1572,SBT4050,1,4,3.74122,-0.11601,16186.324,22,
1572,SBT4050,1,4,3.81289,2.0817,16214.884,21.8,
1572,SBT4050,1,4,3.78445,1.724,16225.772,21.5,
1572,SBT4050,1,4,3.6304,-5.567,16229.278,21.5,
1572,SBT4050,1,4,3.79159,4.0002,16297.205,21.7,
1572,SBT4050,1,4,3.47588,-5.429,16373.291,22.2,
1572,SBT4050,1,4,3.40111,-8.108,16456.161,22.8,
1572,SBT4050,1,4,3.48445,-3.8385,16553.273,23,
1572,SBT4050,1,4,3.37777,-5.295,16657.576,22.9,
1572,SBT4050,1,4,3.39259,-4.008,16777.72,23.7,
1572,SBT4050,1,4,3.37742,-3.9525,16867.48,23.5,
1572,SBT4050,1,4,3.616482,2.7427,16905.614,23,
1572,SBT4050,1,4,3.27998,-6.396,16983.243,23.1,
1572,SBT4050,1,4,3.53959,3.2991,17084.244,24,
1572,SBT4050,1,4,3.4709,0.33202,17151.713,24.3,
1572,SBT4050,1,4,3.3553,-1.967,17232.347,23.9,
1572,SBT4050,1,4,3.58385,3.9998,17269.857,23.2,
1572,SBT4050,1,4,3.539164,2.0022,17280.615,22.5,
1572,SBT4050,1,4,3.52356,-0.027999,17282.276,22,
1572,SBT4050,1,4,2.85011,-14.405,17343.159,22.1,
1572,SBT4050,1,4,3.04745,-10.569,17382.761,22.5,
1572,SBT4050,1,4,3.50171,-0.033999,17424.101,22.8,
1572,SBT4050,1,4,3.48401,1.1768,17477.221,22.9,
1572,SBT4050,1,4,3.36607,-1.627,17488.456,22.2,
1572,SBT4050,1,4,3.427022,-0.7799,17512.972,21.9,
1572,SBT4050,1,4,3.48674,-0.08299,17518.822,21.6,
1572,SBT4050,1,4,3.4768,-0.515,17538.937,21.8,
1572,SBT4050,1,4,3.46614,0,17590.229,22.5,
1572,SBT4050,1,4,3.46773,0,17590.229,22,
1572,SBT4050,1,4,3.46963,0,17590.229,21.6,
1572,SBT4050,1,4,3.47041,0,17590.229,21.3,
1572,SBT4050,1,4,3.65627,4.0003,17590.229,21.3,
1572,SBT4050,1,4,3.71074,3.9997,17590.229,21.7,
1572,SBT4050,1,4,3.75472,4.0002,17590.229,22,
1572,SBT4050,1,4,3.78347,3.9993,17590.229,22.2,
1572,SBT4050,1,4,3.80962,4,17590.229,22.4,
1572,SBT4050,1,4,3.84066,4,17590.229,22.5,
1572,SBT4050,1,4,3.87503,4.0002,17590.229,22.7,
1572,SBT4050,1,4,3.91133,4.0008,17590.229,22.9,
1572,SBT4050,1,4,3.94908,4.0001,17590.229,23,
1572,SBT4050,1,4,3.98888,3.9999,17590.229,23.1,
1572,SBT4050,1,4,4.02902,3.9997,17590.229,23.2,
1572,SBT4050,1,4,4.06835,4.0002,17590.229,23.3,
1572,SBT4050,1,4,4.10833,4.001,17590.229,23.3,
1572,SBT4050,1,4,4.15027,4.0002,17590.229,23.4,
1572,SBT4050,1,4,4.19619,3.9999,17590.229,23.5,
1572,SBT4050,1,4,4.20017,3.0977,17590.229,23.4,
1572,SBT4050,1,4,4.20006,2.463,17590.229,23.1,
1572,SBT4050,1,4,4.20013,2.0046,17590.229,22.8,
1572,SBT4050,1,4,4.200032,1.6743,17590.229,22.4,
1572,SBT4050,1,4,4.19998,1.4194,17590.229,22.2,
1572,SBT4050,1,4,4.2001,1.2188,17590.229,21.9,
1572,SBT4050,1,4,4.20019,1.057,17590.229,21.7,
1572,SBT4050,1,4,4.1999,0.9282,17590.229,21.6,
1572,SBT4050,1,4,4.19995,0.8188,17590.229,21.6,
1572,SBT4050,1,4,4.20009,0.7277,17590.229,21.5,
1572,SBT4050,1,4,4.20002,0.6501,17590.229,21.4,
1572,SBT4050,1,4,4.19998,0.5848,17590.229,21.4,
1572,SBT4050,1,4,4.19994,0.5287,17590.229,21.3,
1572,SBT4050,1,4,4.20014,0.4792,17590.229,21.3,
1572,SBT4050,1,4,4.19975,0.43502,17590.229,21.3,
1572,SBT4050,1,4,4.19983,0.39868,17590.229,21.3,
1572,SBT4050,1,4,4.20019,0.36359,17590.229,21.2,
1572,SBT4050,1,4,4.20026,0.33375,17590.229,21.2,
1572,SBT4050,1,4,4.20022,0.30994,17590.229,21.2,
1572,SBT4050,1,4,4.200318,0.28547,17590.229,21.2,
1572,SBT4050,1,4,4.19989,0.26657,17590.229,21.2,
1572,SBT4050,1,4,4.19991,0.24555,17590.229,21.2,
1572,SBT4050,1,4,4.20009,0.23176,17590.229,21.2,
1572,SBT4050,1,4,4.20026,0.21463,17590.229,21.2,
1572,SBT4050,1,4,4.20025,0.2012,17590.229,21.2,
1572,SBT4050,1,4,4.2002,0.18986,17590.229,21.2,
1572,SBT4050,1,4,4.20009,0.17786,17590.229,21.2,
1572,SBT4050,1,4,4.19994,0.16765,17590.229,21.2,
1572,SBT4050,1,4,4.20013,0.15811,17590.229,21.2,
1572,SBT4050,1,4,4.19997,0.14963,17590.229,21.2,
1572,SBT4050,1,4,4.20007,0.1415,17590.229,21.2,
1572,SBT4050,1,4,4.2004,0.13482,17590.229,21.2,
1572,SBT4050,1,4,4.20009,0.12447,17590.229,21.2,
1572,SBT4050,1,4,4.20007,0.11963,17590.229,21.2,
1572,SBT4050,1,4,4.20009,0.11543,17590.229,21.2,
1572,SBT4050,1,4,4.19967,0.11245,17590.229,21.2,
1572,SBT4050,1,4,4.20006,0.10581,17590.229,21.2,
1572,SBT4050,1,4,4.200294,0.1005,17590.229,21.2,
1572,SBT4050,1,4,4.19117,0,17590.229,21.2,
1572,SBT4050,1,4,4.18844,0,17590.229,21.2,
1572,SBT4050,1,4,4.18562,0,17590.229,21.2,
1572,SBT4050,1,4,4.183682,0,17590.229,21.2,
1572,SBT4050,1,4,4.18144,0,17590.229,21.2,
1572,SBT4050,1,4,4.18018,0,17590.229,21.2,
1572,SBT4050,1,4,4.17851,0,17590.229,,