File: Dataset/AANDCNet/cell1/cycle_28/Test1579.csv
Test:,1579,,,,,,,
Start Time:,8/11/2021 3:41 PM,,,,,,,
End Time:,8/11/2021 8:52 PM,,,,,,,
Test,Rack,Shelf,Position,Voltage (V),Current (A),Discharge Capacity (mAh),TC_1 (C),
1579,SBT4050,1,4,4.12041,0,0,19.4,
1579,SBT4050,1,4,4.12024,0,0,19.3,
1579,SBT4050,1,4,4.12026,0,0,19.3,
1579,SBT4050,1,4,4.11997,0,0,19.3,
1579,SBT4050,1,4,4.20144,1.6647,0,19.4,
1579,SBT4050,1,4,4.20085,1.2061,0,19.5,
1579,SBT4050,1,4,4.200386,0.9785,0,19.5,
1579,SBT4050,1,4,4.20049,0.8284,0,19.5,
1579,SBT4050,1,4,4.20056,0.7206,0,19.5,
1579,SBT4050,1,4,4.2003,0.6363,0,19.5,
1579,SBT4050,1,4,4.20034,0.5677,0,19.5,
1579,SBT4050,1,4,4.20029,0.511,0,19.5,
1579,SBT4050,1,4,4.20023,0.46515,0,19.5,
1579,SBT4050,1,4,4.20048,0.42443,0,19.5,
1579,SBT4050,1,4,4.200434,0.39015,0,19.5,
1579,SBT4050,1,4,4.19991,0.36179,0,19.6,
1579,SBT4050,1,4,4.2003,0.33554,0,19.5,
1579,SBT4050,1,4,4.20018,0.31169,0,19.6,
1579,SBT4050,1,4,4.200112,0.29309,0,19.6,
1579,SBT4050,1,4,4.200088,0.27559,0,19.6,
1579,SBT4050,1,4,4.20002,0.25851,0,19.5,
1579,SBT4050,1,4,4.19998,0.24211,0,19.5,
1579,SBT4050,1,4,4.19996,0.2291,0,19.6,
1579,SBT4050,1,4,4.20017,0.21785,0,19.5,
1579,SBT4050,1,4,4.20029,0.20562,0,19.5,
1579,SBT4050,1,4,4.200088,0.19587,0,19.5,
1579,SBT4050,1,4,4.20035,0.1885,0,19.5,
1579,SBT4050,1,4,4.20015,0.18063,0,19.5,
1579,SBT4050,1,4,4.20015,0.17173,0,19.5,
1579,SBT4050,1,4,4.20025,0.16427,0,19.5,
1579,SBT4050,1,4,4.200386,0.15745,0,19.5,
1579,SBT4050,1,4,4.20003,0.15144,0,19.5,
1579,SBT4050,1,4,4.20035,0.14547,0,19.5,
1579,SBT4050,1,4,4.200124,0.13912,0,19.5,
1579,SBT4050,1,4,4.19998,0.13433,0,19.5,
1579,SBT4050,1,4,4.20021,0.12955,0,19.5,
1579,SBT4050,1,4,4.20022,0.12393,0,19.5,
1579,SBT4050,1,4,4.19996,0.12099,0,19.5,
1579,SBT4050,1,4,4.200088,0.11717,0,19.5,
1579,SBT4050,1,4,4.20002,0.11331,0,19.5,
1579,SBT4050,1,4,4.20016,0.11123,0,19.5,
1579,SBT4050,1,4,4.19984,0.10808,0,19.6,
1579,SBT4050,1,4,4.200124,0.10543,0,19.6,
1579,SBT4050,1,4,4.20002,0.10169,0,19.6,
1579,SBT4050,1,4,4.19597,0,0,19.6,
1579,SBT4050,1,4,4.19471,0,0,19.6,
1579,SBT4050,1,4,4.19397,0,0,19.6,
1579,SBT4050,1,4,4.19335,0,0,19.5,
1579,SBT4050,1,4,4.192192,0,0,19.5,
1579,SBT4050,1,4,4.191928,0,0,19.5,
1579,SBT4050,1,4,4.191254,0,0,19.5,
1579,SBT4050,1,4,4.19095,0,0,19.5,
1579,SBT4050,1,4,4.19024,0,0,19.5,
1579,SBT4050,1,4,4.18985,0,0,19.5,
1579,SBT4050,1,4,4.18962,0,0,19.5,
1579,SBT4050,1,4,4.18883,0,0,19.5,
1579,SBT4050,1,4,4.18866,0,0,19.5,
1579,SBT4050,1,4,4.18834,0,0,19.5,
1579,SBT4050,1,4,4.188214,0,0,19.5,
1579,SBT4050,1,4,4.18781,0,0,19.5,
1579,SBT4050,1,4,4.18722,0,0,19.5,
1579,SBT4050,1,4,4.18704,0,0,19.5,
1579,SBT4050,1,4,4.18663,0,0,19.6,
1579,SBT4050,1,4,4.18616,0,0,19.5,
1579,SBT4050,1,4,4.18622,0,0,19.5,
1579,SBT4050,1,4,4.18588,0,0,19.5,
1579,SBT4050,1,4,4.18597,0,0,19.5,
1579,SBT4050,1,4,4.18537,0,0,19.5,
1579,SBT4050,1,4,4.18518,0,0,19.5,
1579,SBT4050,1,4,4.18504,0,0,19.5,
1579,SBT4050,1,4,4.18487,0,0,19.5,
1579,SBT4050,1,4,4.18463,0,0,19.4,
1579,SBT4050,1,4,4.18427,0,0,19.5,
1579,SBT4050,1,4,4.18386,0,0,19.5,
1579,SBT4050,1,4,4.18327,0,0,19.5,
1579,SBT4050,1,4,4.18335,0,0,19.5,
1579,SBT4050,1,4,4.18312,0,0,19.5,
1579,SBT4050,1,4,4.1834,0,0,19.5,
1579,SBT4050,1,4,4.18318,0,0,19.5,
1579,SBT4050,1,4,4.18281,0,0,19.5,
1579,SBT4050,1,4,4.18259,0,0,19.5,
1579,SBT4050,1,4,4.182308,0,0,19.5,
1579,SBT4050,1,4,4.182458,0,0,19.4,
1579,SBT4050,1,4,4.18218,0,0,19.4,
1579,SBT4050,1,4,4.182472,0,0,19.4,
1579,SBT4050,1,4,4.18204,0,0,19.4,
1579,SBT4050,1,4,4.181934,0,0,19.4,
1579,SBT4050,1,4,4.18198,0,0,19.4,
1579,SBT4050,1,4,4.18139,0,0,19.4,
1579,SBT4050,1,4,4.1814,0,0,19.4,
1579,SBT4050,1,4,4.18115,0,0,19.4,
1579,SBT4050,1,4,4.18113,0,0,19.4,
1579,SBT4050,1,4,4.18118,0,0,19.3,
1579,SBT4050,1,4,4.18095,0,0,19.3,
1579,SBT4050,1,4,4.180672,0,0,19.3,
1579,SBT4050,1,4,4.180724,0,0,19.3,
1579,SBT4050,1,4,4.18018,0,0,19.3,
1579,SBT4050,1,4,4.18013,0,0,19.3,
1579,SBT4050,1,4,4.18031,0,0,19.3,
1579,SBT4050,1,4,4.18014,0,0,19.2,
1579,SBT4050,1,4,4.18008,0,0,19.3,
1579,SBT4050,1,4,4.1797,0,0,19.1,
1579,SBT4050,1,4,4.17977,0,0,19.2,
1579,SBT4050,1,4,4.17994,0,0,19.2,
1579,SBT4050,1,4,4.17948,0,0,19.2,
1579,SBT4050,1,4,4.179438,0,0,19.1,
1579,SBT4050,1,4,4.17916,0,0,19.2,
1579,SBT4050,1,4,4.17929,0,0,19.1,
1579,SBT4050,1,4,4.179102,0,0,19.2,
1579,SBT4050,1,4,4.178848,0,0,19.2,
1579,SBT4050,1,4,4.17881,0,0,19.3,
1579,SBT4050,1,4,4.17888,0,0,19.3,
1579,SBT4050,1,4,4.17881,0,0,19.1,
1579,SBT4050,1,4,4.17892,0,0,19.2,
1579,SBT4050,1,4,4.17848,0,0,19.2,
1579,SBT4050,1,4,4.17848,0,0,19.1,
1579,SBT4050,1,4,4.17829,0,0,19.2,
1579,SBT4050,1,4,4.17828,0,0,19.3,
1579,SBT4050,1,4,4.17819,0,0,19.2,
1579,SBT4050,1,4,4.17831,0,0,19.1,
1579,SBT4050,1,4,4.17813,0,0,19.1,
1579,SBT4050,1,4,4.17818,0,0,19.1,
1579,SBT4050,1,4,4.17794,0,0,19.2,
1579,SBT4050,1,4,4.177978,0,0,19.2,
1579,SBT4050,1,4,4.17747,0,0,19.1,
1579,SBT4050,1,4,4.17739,0,0,19.2,
1579,SBT4050,1,4,4.1777,0,0,19.3,
1579,SBT4050,1,4,4.1775,0,0,19.1,
1579,SBT4050,1,4,4.17747,0,0,19.2,
1579,SBT4050,1,4,4.17734,0,0,19.1,
1579,SBT4050,1,4,4.177122,0,0,19.1,
1579,SBT4050,1,4,4.1771,0,0,19.1,
1579,SBT4050,1,4,4.17724,0,0,19.1,
1579,SBT4050,1,4,4.176744,0,0,19.1,
1579,SBT4050,1,4,4.17694,0,0,19.1,
1579,SBT4050,1,4,4.176966,0,0,19.1,
1579,SBT4050,1,4,4.176946,0,0,19.1,
1579,SBT4050,1,4,4.177124,0,0,19,
1579,SBT4050,1,4,4.17696,0,0,19.1,
1579,SBT4050,1,4,4.17676,0,0,19.1,
1579,SBT4050,1,4,4.17644,0,0,19,
1579,SBT4050,1,4,4.17663,0,0,19,
1579,SBT4050,1,4,4.1762,0,0,19,
1579,SBT4050,1,4,4.17665,0,0,18.9,
1579,SBT4050,1,4,4.17627,0,0,18.9,
1579,SBT4050,1,4,4.17613,0,0,19,
1579,SBT4050,1,4,4.17628,0,0,19,
1579,SBT4050,1,4,4.17613,0,0,19,
1579,SBT4050,1,4,4.175808,0,0,19,
1579,SBT4050,1,4,4.175986,0,0,18.9,
1579,SBT4050,1,4,4.17619,0,0,18.9,
1579,SBT4050,1,4,4.17587,0,0,18.9,
1579,SBT4050,1,4,4.17599,0,0,18.9,
1579,SBT4050,1,4,4.175864,0,0,18.9,
1579,SBT4050,1,4,4.17576,0,0,18.9,
1579,SBT4050,1,4,4.17582,0,0,19,
1579,SBT4050,1,4,4.17558,0,0,18.9,
1579,SBT4050,1,4,4.175606,0,0,18.9,
1579,SBT4050,1,4,4.1756,0,0,18.9,
1579,SBT4050,1,4,4.17556,0,0,18.9,
1579,SBT4050,1,4,4.1755,0,0,19,
1579,SBT4050,1,4,4.17544,0,0,19,
1579,SBT4050,1,4,4.175234,0,0,19,
1579,SBT4050,1,4,4.17523,0,0,18.9,
1579,SBT4050,1,4,4.17523,0,0,19,
1579,SBT4050,1,4,4.17503,0,0,18.9,
1579,SBT4050,1,4,4.17521,0,0,19,
1579,SBT4050,1,4,4.17521,0,0,19.1,
1579,SBT4050,1,4,4.175008,0,0,19,
1579,SBT4050,1,4,4.1751,0,0,19,
1579,SBT4050,1,4,4.17501,0,0,19,
1579,SBT4050,1,4,4.17498,0,0,19,
1579,SBT4050,1,4,4.17513,0,0,19,
1579,SBT4050,1,4,4.17468,0,0,19,
1579,SBT4050,1,4,4.174784,0,0,19,
1579,SBT4050,1,4,4.17467,0,0,19.1,
1579,SBT4050,1,4,4.17447,0,0,19,
1579,SBT4050,1,4,4.17454,0,0,19,
1579,SBT4050,1,4,4.17459,0,0,19.1,
1579,SBT4050,1,4,4.17457,0,0,19.1,
1579,SBT4050,1,4,4.17464,0,0,19.1,
1579,SBT4050,1,4,4.17448,0,0,19.2,
1579,SBT4050,1,4,4.17425,0,0,19.1,
1579,SBT4050,1,4,4.17412,0,0,19.1,
1579,SBT4050,1,4,4.17405,0,0,19.1,
1579,SBT4050,1,4,4.17375,0,0,19.1,
1579,SBT4050,1,4,4.17391,0,0,19.2,
1579,SBT4050,1,4,4.17408,0,0,19.1,
1579,SBT4050,1,4,4.17382,0,0,19.2,
1579,SBT4050,1,4,4.17398,0,0,19.1,
1579,SBT4050,1,4,4.17383,0,0,19.1,
1579,SBT4050,1,4,4.17389,0,0,19.2,
1579,SBT4050,1,4,4.17406,0,0,19.2,
1579,SBT4050,1,4,4.17397,0,0,19.2,
1579,SBT4050,1,4,4.173964,0,0,19.2,
1579,SBT4050,1,4,4.173952,0,0,19.2,
1579,SBT4050,1,4,4.1737,0,0,19.2,
1579,SBT4050,1,4,4.17368,0,0,19.2,
1579,SBT4050,1,4,4.17363,0,0,19.3,
1579,SBT4050,1,4,4.17347,0,0,19.2,
1579,SBT4050,1,4,4.17341,0,0,19.2,
1579,SBT4050,1,4,4.17363,0,0,19.2,
1579,SBT4050,1,4,4.17348,0,0,19.3,
1579,SBT4050,1,4,4.173504,0,0,19.2,
1579,SBT4050,1,4,4.1734,0,0,19.3,
1579,SBT4050,1,4,4.173112,0,0,19.3,
1579,SBT4050,1,4,4.17321,0,0,19.3,
1579,SBT4050,1,4,4.17319,0,0,19.3,
1579,SBT4050,1,4,4.173006,0,0,19.3,
1579,SBT4050,1,4,4.17302,0,0,19.3,
1579,SBT4050,1,4,4.1733,0,0,19.3,
1579,SBT4050,1,4,4.17328,0,0,19.3,
1579,SBT4050,1,4,4.172952,0,0,19.3,
1579,SBT4050,1,4,4.17325,0,0,19.3,
1579,SBT4050,1,4,4.17294,0,0,19.3,
1579,SBT4050,1,4,4.17281,0,0,19.3,
1579,SBT4050,1,4,4.17302,0,0,19.3,
1579,SBT4050,1,4,4.173,0,0,19.3,
1579,SBT4050,1,4,4.17292,0,0,19.3,
1579,SBT4050,1,4,4.173058,0,0,19.3,
1579,SBT4050,1,4,4.17282,0,0,19.3,
1579,SBT4050,1,4,4.1729,0,0,19.3,
1579,SBT4050,1,4,4.172632,0,0,19.3,
1579,SBT4050,1,4,4.17254,0,0,19.3,
1579,SBT4050,1,4,4.17266,0,0,19.3,
1579,SBT4050,1,4,4.17231,0,0,19.3,
1579,SBT4050,1,4,4.17231,0,0,19.3,
1579,SBT4050,1,4,4.172284,0,0,19.4,
1579,SBT4050,1,4,4.17242,0,0,19.4,
1579,SBT4050,1,4,4.17257,0,0,19.4,
1579,SBT4050,1,4,4.172482,0,0,19.4,
1579,SBT4050,1,4,4.17231,0,0,19.4,
1579,SBT4050,1,4,4.17273,0,0,19.4,
1579,SBT4050,1,4,4.17233,0,0,19.4,
1579,SBT4050,1,4,4.17201,0,0,19.5,
1579,SBT4050,1,4,4.17244,0,0,19.4,
1579,SBT4050,1,4,4.172104,0,0,19.5,
1579,SBT4050,1,4,4.17231,0,0,19.5,
1579,SBT4050,1,4,4.17235,0,0,19.4,
1579,SBT4050,1,4,4.17226,0,0,19.4,
1579,SBT4050,1,4,4.172344,0,0,19.4,
1579,SBT4050,1,4,4.17199,0,0,19.4,
1579,SBT4050,1,4,4.17209,0,0,19.4,
1579,SBT4050,1,4,4.17219,0,0,19.4,
1579,SBT4050,1,4,4.1724,0,0,19.5,
1579,SBT4050,1,4,4.172,0,0,19.4,
1579,SBT4050,1,4,4.172,0,0,19.5,
1579,SBT4050,1,4,4.17188,0,0,19.5,
1579,SBT4050,1,4,4.17195,0,0,19.5,
1579,SBT4050,1,4,4.17194,0,0,19.5,
1579,SBT4050,1,4,4.17173,0,0,19.5,
1579,SBT4050,1,4,4.17173,0,0,19.5,
1579,SBT4050,1,4,4.171918,0,0,19.5,
1579,SBT4050,1,4,4.17196,0,0,19.5,
1579,SBT4050,1,4,4.17213,0,0,19.5,
1579,SBT4050,1,4,4.17194,0,0,19.5,
1579,SBT4050,1,4,4.17909,0.18099,0,19.5,
1579,SBT4050,1,4,4.18221,0.18699,0,19.5,
1579,SBT4050,1,4,4.02021,-3.6174,6.993,19.5,
1579,SBT4050,1,4,4.13521,0.01,16.909,19.6,
1579,SBT4050,1,4,3.95725,-5.207,20.31,19.6,
1579,SBT4050,1,4,3.84332,-7.303,41.117,19.6,
1579,SBT4050,1,4,4.094066,-0.005,53.444,19.9,
1579,SBT4050,1,4,3.66473,-12.691,72.688,20,
1579,SBT4050,1,4,4.08328,0.020997,81.094,20.2,
1579,SBT4050,1,4,3.6624,-12.045,106.766,20.4,
1579,SBT4050,1,4,4.12654,3.2043,122.388,20.7,
1579,SBT4050,1,4,3.84097,-4.7483,150.741,20.9,
1579,SBT4050,1,4,4.05915,1.3779,162.388,21,
1579,SBT4050,1,4,4.0251,-0.005999,162.403,21,
1579,SBT4050,1,4,4.00628,-0.932,162.561,20.9,
1579,SBT4050,1,4,3.78526,-6.552,185.092,20.8,
1579,SBT4050,1,4,3.87415,-1.9729,213.76,20.9,
1579,SBT4050,1,4,3.99456,0.07,215.687,21,
1579,SBT4050,1,4,3.99785,-0.046,215.885,20.9,
1579,SBT4050,1,4,3.63239,-10.845,238.992,20.7,
1579,SBT4050,1,4,3.924608,1.1329,275.883,21.2,
1579,SBT4050,1,4,3.84151,-0.6949,303.212,21.5,
1579,SBT4050,1,4,3.7961,-2.0732,326.902,21.6,
1579,SBT4050,1,4,3.60096,-8.374,364.569,21.9,
1579,SBT4050,1,4,3.714322,-3.7648,397.986,22.2,
1579,SBT4050,1,4,3.61295,-7.632,431.599,22.4,
1579,SBT4050,1,4,3.68934,-3.9648,463.724,22.7,
1579,SBT4050,1,4,3.53051,-9.302,497.089,22.8,
1579,SBT4050,1,4,3.86068,3.3582,513.981,23,
1579,SBT4050,1,4,3.62029,-6.702,532.35,22.9,
1579,SBT4050,1,4,3.7026,-3.181,550.482,22.9,
1579,SBT4050,1,4,3.8344,-0.011999,551.499,22.8,
1579,SBT4050,1,4,3.82438,0.057,559.815,22.6,
1579,SBT4050,1,4,3.84255,-0.05799,559.986,22.3,
1579,SBT4050,1,4,3.59016,-9.47,569.482,22.2,
1579,SBT4050,1,4,3.526374,-9.524,601.946,22.1,
1579,SBT4050,1,4,3.89113,4.0005,618.058,22.2,
1579,SBT4050,1,4,3.6541,-4.4593,641.021,22.2,
1579,SBT4050,1,4,3.67644,-2.3056,670.766,22.2,
1579,SBT4050,1,4,3.58026,-5.212,701.187,22.3,
1579,SBT4050,1,4,3.721444,-1.0832,709.049,22.4,
1579,SBT4050,1,4,3.711852,-4.1007,709.593,22.3,
1579,SBT4050,1,4,3.61243,-4.2085,745.518,22.2,
1579,SBT4050,1,4,3.78506,0.735,750.188,22.2,
1579,SBT4050,1,4,3.78008,-0.05299,750.458,22.1,
1579,SBT4050,1,4,3.59378,-7.612,754.62,21.9,
1579,SBT4050,1,4,3.54423,-7.551,778.425,21.8,
1579,SBT4050,1,4,3.65423,-2.4399,804.096,21.9,
1579,SBT4050,1,4,3.74462,-0.26401,806.449,21.8,
1579,SBT4050,1,4,3.75109,-0.35996,808.517,21.7,
1579,SBT4050,1,4,3.31739,-14.499,839.521,21.6,
1579,SBT4050,1,4,3.339484,-10.637,904.976,22.2,
1579,SBT4050,1,4,3.32129,-10.607,953.148,23,
1579,SBT4050,1,4,3.4293,-7.715,983.198,23.4,
1579,SBT4050,1,4,3.38704,-8.243,1021.064,23.6,
1579,SBT4050,1,4,3.69204,3.9999,1046.571,23.8,
1579,SBT4050,1,4,3.71219,1.4199,1046.571,23.8,
1579,SBT4050,1,4,3.32214,-12.85,1071.334,23.5,
1579,SBT4050,1,4,3.71088,3.9995,1097.903,23.7,
1579,SBT4050,1,4,3.71465,2.1418,1099.585,23.6,
1579,SBT4050,1,4,3.66754,-0.38202,1099.853,23.3,
1579,SBT4050,1,4,3.41954,-7.681,1132.623,23,
1579,SBT4050,1,4,3.49209,-6.711,1145.147,23,
1579,SBT4050,1,4,3.6925,4.0001,1179.162,22.9,
1579,SBT4050,1,4,3.43053,-7.312,1192.505,23,
1579,SBT4050,1,4,3.36231,-10.483,1207.498,22.9,
1579,SBT4050,1,4,3.416736,-4.1362,1262.676,22.8,
1579,SBT4050,1,4,3.47613,-3.941,1273.815,23.2,
1579,SBT4050,1,4,3.63845,0.46408,1276.887,23.1,
1579,SBT4050,1,4,3.484888,-4.8621,1289.201,22.9,
1579,SBT4050,1,4,3.505666,-4.6968,1296.063,22.7,
1579,SBT4050,1,4,3.67348,3.9995,1327.203,22.6,
1579,SBT4050,1,4,3.61334,-0.06799,1327.381,22.6,
1579,SBT4050,1,4,3.36507,-9.623,1335.754,22.4,
1579,SBT4050,1,4,3.42241,-3.5104,1384.607,22.4,
1579,SBT4050,1,4,3.242869,-12.278,1406.24,22.8,
1579,SBT4050,1,4,3.47149,-1.5141,1437.533,22.9,
1579,SBT4050,1,4,3.597148,1.311,1445.66,22.8,
1579,SBT4050,1,4,3.41699,-6.597,1452.43,22.7,
1579,SBT4050,1,4,3.29936,-9.035,1477.927,22.7,
1579,SBT4050,1,4,3.62443,2.0699,1490.012,22.6,
1579,SBT4050,1,4,3.574622,-0.4759,1490.767,22.4,
1579,SBT4050,1,4,3.49569,-2.8248,1500.657,22.2,
1579,SBT4050,1,4,3.571474,0.065,1513.117,22.1,
1579,SBT4050,1,4,3.58311,-0.05999,1513.36,21.9,
1579,SBT4050,1,4,3.59114,-0.062,1513.659,21.7,
1579,SBT4050,1,4,3.50361,-2.557,1522.035,21.6,
1579,SBT4050,1,4,3.58699,0.7619,1535.816,21.4,
1579,SBT4050,1,4,3.519748,-2.4314,1536.554,21.4,
1579,SBT4050,1,4,3.261648,-10.163,1558.853,21.3,
1579,SBT4050,1,4,3.64541,3.8168,1581.296,21.4,
1579,SBT4050,1,4,3.19277,-12.798,1589.976,21.5,
1579,SBT4050,1,4,3.58671,1.246,1613.315,21.7,
1579,SBT4050,1,4,3.10268,-14.5,1630.305,21.7,
1579,SBT4050,1,4,3.61343,4.0002,1658.596,22.1,
1579,SBT4050,1,4,3.39891,-2.6291,1685.533,22.2,
1579,SBT4050,1,4,3.619638,4.0001,1698.6,22.4,
1579,SBT4050,1,4,3.53728,-0.068,1698.771,22.3,
1579,SBT4050,1,4,3.54626,-0.085,1699.116,22.1,
1579,SBT4050,1,4,3.30831,-6.571,1719.594,21.9,
1579,SBT4050,1,4,3.27478,-5.583,1754.571,21.9,
1579,SBT4050,1,4,3.59239,2.9688,1759.488,22.2,
1579,SBT4050,1,4,3.524434,-0.06799,1759.783,22,
1579,SBT4050,1,4,3.060006,-14.31,1774.027,21.8,
1579,SBT4050,1,4,3.549772,3.9999,1822.528,22.3,
1579,SBT4050,1,4,3.32893,-3.6839,1841.838,22.7,
1579,SBT4050,1,4,3.29396,-4.784,1858.077,22.8,
1579,SBT4050,1,4,3.19701,-7.143,1879.658,22.7,
1579,SBT4050,1,4,3.511964,2.0608,1890.122,22.8,
1579,SBT4050,1,4,3.59034,4.0002,1898.623,22.6,
1579,SBT4050,1,4,3.565128,2.6022,1905.946,22.5,
1579,SBT4050,1,4,3.35936,-4.2898,1912.4,22.4,
1579,SBT4050,1,4,3.63298,3.9998,1916.381,22.2,
1579,SBT4050,1,4,3.2195,-11.279,1920.566,22,
1579,SBT4050,1,4,3.53052,-0.124,1931.273,22,
1579,SBT4050,1,4,3.56323,0.043997,1931.3,21.9,
1579,SBT4050,1,4,3.51644,-0.5329,1936.42,21.8,
1579,SBT4050,1,4,3.54268,-0.017989,1936.576,21.6,
1579,SBT4050,1,4,3.40571,-4.7437,1937.767,21.4,
1579,SBT4050,1,4,3.05765,-12.482,1966.775,21.4,
1579,SBT4050,1,4,3.555898,3.9998,1992.785,21.8,
1579,SBT4050,1,4,3.603654,3.8129,1999.075,21.8,
1579,SBT4050,1,4,3.59184,2.7599,1999.68,21.8,
1579,SBT4050,1,4,3.34193,-4.3942,2012.58,21.6,
1579,SBT4050,1,4,3.53587,0.31995,2018.21,21.6,
1579,SBT4050,1,4,3.67231,3.9998,2018.21,21.6,
1579,SBT4050,1,4,3.237244,-6.55,2048.655,21.5,
1579,SBT4050,1,4,3.5148,0.7419,2056.871,21.7,
1579,SBT4050,1,4,3.51087,0.08699,2056.895,21.6,
1579,SBT4050,1,4,3.51446,0.043005,2056.899,21.4,
1579,SBT4050,1,4,3.58591,1.453,2061.214,21.4,
1579,SBT4050,1,4,3.63311,3.9996,2066.849,21.2,
1579,SBT4050,1,4,3.488022,-1.5249,2069.057,21.2,
1579,SBT4050,1,4,3.56154,0.88,2070.123,21.1,
1579,SBT4050,1,4,2.9912,-14.498,2084.814,21,
1579,SBT4050,1,4,3.347214,-0.7439,2136.711,21.6,
1579,SBT4050,1,4,3.38161,-2.6234,2140.206,22.3,
1579,SBT4050,1,4,3.61679,3.9881,2141.241,22.1,
1579,SBT4050,1,4,3.467962,-1.9399,2142.208,22,
1579,SBT4050,1,4,3.620288,4.0002,2146.969,21.8,
1579,SBT4050,1,4,3.66394,4.0003,2146.969,21.6,
1579,SBT4050,1,4,3.12932,-11.692,2157.971,21.6,
1579,SBT4050,1,4,3.56958,3.9998,2193.106,21.9,
1579,SBT4050,1,4,3.54335,1.701,2194.563,22.1,
1579,SBT4050,1,4,3.508806,-0.024999,2194.651,22,
1579,SBT4050,1,4,3.38261,-2.4522,2207.543,21.8,
1579,SBT4050,1,4,3.56125,1.219,2209.882,21.7,
1579,SBT4050,1,4,3.573526,4,2232.073,21.7,
1579,SBT4050,1,4,3.21524,-8.214,2237.324,21.7,
1579,SBT4050,1,4,3.40777,-1.7032,2252.713,21.8,
1579,SBT4050,1,4,3.117855,-5.359,2298.138,21.8,
1579,SBT4050,1,4,3.55193,2.8147,2300.275,22.4,
1579,SBT4050,1,4,3.62138,4.0002,2300.275,22.3,
1579,SBT4050,1,4,3.589176,3.372,2302.003,22.2,
1579,SBT4050,1,4,3.51793,-0.018999,2302.056,22,
1579,SBT4050,1,4,3.584062,3.9995,2320.259,21.9,
1579,SBT4050,1,4,3.4958,-0.019,2320.407,21.9,
1579,SBT4050,1,4,3.40352,-2.934,2321.11,21.7,
1579,SBT4050,1,4,3.12036,-6.22,2356.278,21.6,
1579,SBT4050,1,4,3.477292,0.28296,2365.5,22,
1579,SBT4050,1,4,3.34783,-2.3196,2383.356,22,
1579,SBT4050,1,4,3.59759,4.0001,2385.783,22,
1579,SBT4050,1,4,3.53831,0.7471,2385.783,21.8,
1579,SBT4050,1,4,3.14908,-7.712,2401.906,21.7,
1579,SBT4050,1,4,3.578698,3.9995,2419.508,22,
1579,SBT4050,1,4,3.5332,0.8789,2419.508,21.9,
1579,SBT4050,1,4,3.45936,-0.35395,2422.998,21.7,
1579,SBT4050,1,4,3.56097,2.5821,2426.799,21.6,
1579,SBT4050,1,4,3.48254,-0.028,2426.855,21.5,
1579,SBT4050,1,4,3.48133,-0.015999,2426.937,21.3,
1579,SBT4050,1,4,3.48129,-0.003,2427.006,21.2,
1579,SBT4050,1,4,3.48117,-0.008991,2427.082,21,
1579,SBT4050,1,4,3.48085,-0.012999,2427.168,21,
1579,SBT4050,1,4,3.48094,-0.021001,2427.237,20.9,
1579,SBT4050,1,4,3.48107,-0.016999,2427.33,20.8,
1579,SBT4050,1,4,3.48116,-0.016,2427.404,20.7,
1579,SBT4050,1,4,3.48152,-0.017989,2427.482,20.6,
1579,SBT4050,1,4,3.48118,-0.026001,2427.569,20.5,
1579,SBT4050,1,4,3.48186,-0.008989,2427.637,20.5,
1579,SBT4050,1,4,3.48163,-0.018997,2427.703,20.4,
1579,SBT4050,1,4,3.48179,-0.022998,2427.766,20.4,
1579,SBT4050,1,4,3.48215,-0.015001,2427.851,20.3,
1579,SBT4050,1,4,3.48205,-0.019996,2427.919,20.3,
1579,SBT4050,1,4,3.48246,-0.00899,2427.987,20.3,
1579,SBT4050,1,4,3.482568,-0.011999,2428.047,20.2,
1579,SBT4050,1,4,3.4826,-0.016,2428.101,20.2,
1579,SBT4050,1,4,3.48326,0,2428.125,20.2,
1579,SBT4050,1,4,3.483774,0,2428.125,20.2,
1579,SBT4050,1,4,3.48379,0,2428.125,20.1,
1579,SBT4050,1,4,3.48407,0,2428.125,20.1,
1579,SBT4050,1,4,3.48414,0,2428.125,20,
1579,SBT4050,1,4,3.4846,0,2428.125,20.1,
1579,SBT4050,1,4,3.484854,0,2428.125,20,
1579,SBT4050,1,4,3.48482,0,2428.125,20,
1579,SBT4050,1,4,3.48476,0,2428.125,20,
1579,SBT4050,1,4,3.485046,0,2428.125,20,
1579,SBT4050,1,4,3.48516,0,2428.125,20,
1579,SBT4050,1,4,3.484968,0,2428.125,20,
1579,SBT4050,1,4,3.48574,0,2428.125,20,
1579,SBT4050,1,4,3.48561,0,2428.125,20,
1579,SBT4050,1,4,3.48589,0,2428.125,20,
1579,SBT4050,1,4,3.48592,0,2428.125,20,
1579,SBT4050,1,4,3.48586,0,2428.125,20,
1579,SBT4050,1,4,3.48605,0,2428.125,20,
1579,SBT4050,1,4,3.65339,3.9993,2428.125,20,
1579,SBT4050,1,4,3.67208,3.9998,2428.125,20.1,
1579,SBT4050,1,4,3.6874,3.9997,2428.125,20.2,
1579,SBT4050,1,4,3.70131,3.9998,2428.125,20.3,
1579,SBT4050,1,4,3.71373,4,2428.125,20.4,
1579,SBT4050,1,4,3.72491,4.0001,2428.125,20.5,
1579,SBT4050,1,4,3.7357,3.9997,2428.125,20.6,
1579,SBT4050,1,4,3.74601,4.0004,2428.125,20.6,
1579,SBT4050,1,4,3.75484,4.0003,2428.125,20.7,
1579,SBT4050,1,4,3.7628,4.0004,2428.125,20.8,
1579,SBT4050,1,4,3.76922,4.0003,2428.125,20.9,
1579,SBT4050,1,4,3.77496,3.9994,2428.125,20.9,
1579,SBT4050,1,4,3.78022,4.0001,2428.125,21,
1579,SBT4050,1,4,3.78546,4.0004,2428.125,21,
1579,SBT4050,1,4,3.7906,4.0002,2428.125,21.1,
1579,SBT4050,1,4,3.79583,4.0002,2428.125,21.1,
1579,SBT4050,1,4,3.801608,3.9994,2428.125,21.2,
1579,SBT4050,1,4,3.80729,3.9997,2428.125,21.2,
1579,SBT4050,1,4,3.81321,4,2428.125,21.2,
1579,SBT4050,1,4,3.819766,4.0004,2428.125,21.3,
1579,SBT4050,1,4,3.82666,3.9995,2428.125,21.3,
1579,SBT4050,1,4,3.83375,4.0004,2428.125,21.4,
1579,SBT4050,1,4,3.84066,3.9998,2428.125,21.4,
1579,SBT4050,1,4,3.84817,4.0003,2428.125,21.4,
1579,SBT4050,1,4,3.85533,3.9998,2428.125,21.5,
1579,SBT4050,1,4,3.86295,4.0004,2428.125,21.5,
1579,SBT4050,1,4,3.87014,4.0001,2428.125,21.6,
1579,SBT4050,1,4,3.87732,3.9994,2428.125,21.6,
1579,SBT4050,1,4,3.885086,4.0001,2428.125,21.6,
1579,SBT4050,1,4,3.89248,4.0001,2428.125,21.6,
1579,SBT4050,1,4,3.90075,4.0003,2428.125,21.8,
1579,SBT4050,1,4,3.90864,3.9997,2428.125,21.7,
1579,SBT4050,1,4,3.9167,4.0005,2428.125,21.8,
1579,SBT4050,1,4,3.925,4.0001,2428.125,21.8,
1579,SBT4050,1,4,3.93294,3.9998,2428.125,21.8,
1579,SBT4050,1,4,3.9414,4,2428.125,21.9,
1579,SBT4050,1,4,3.95002,4,2428.125,21.9,
1579,SBT4050,1,4,3.9586,4,2428.125,21.9,
1579,SBT4050,1,4,3.96748,3.9995,2428.125,22,
1579,SBT4050,1,4,3.97587,3.9998,2428.125,22,
1579,SBT4050,1,4,3.98438,3.9998,2428.125,22,
1579,SBT4050,1,4,3.9933,3.9997,2428.125,22.1,
1579,SBT4050,1,4,4.00207,4.0001,2428.125,22,
1579,SBT4050,1,4,4.0109,3.9997,2428.125,22.1,
1579,SBT4050,1,4,4.01946,3.9998,2428.125,22.1,
1579,SBT4050,1,4,4.02809,4.0003,2428.125,22.1,
1579,SBT4050,1,4,4.03648,4.0003,2428.125,22.1,
1579,SBT4050,1,4,4.04519,3.9997,2428.125,22.2,
1579,SBT4050,1,4,4.054234,3.9994,2428.125,22.1,
1579,SBT4050,1,4,4.06256,4.0001,2428.125,22.1,
1579,SBT4050,1,4,4.07126,3.9998,2428.125,22.2,
1579,SBT4050,1,4,4.07988,4.0003,2428.125,22.2,
1579,SBT4050,1,4,4.0887,4,2428.125,22.2,
1579,SBT4050,1,4,4.09761,4,2428.125,22.3,
1579,SBT4050,1,4,4.10628,3.9997,2428.125,22.2,
1579,SBT4050,1,4,4.115154,4,2428.125,22.3,
1579,SBT4050,1,4,4.12427,4.0001,2428.125,22.2,
1579,SBT4050,1,4,4.13325,3.9995,2428.125,22.3,
1579,SBT4050,1,4,4.14285,3.9995,2428.125,22.3,
1579,SBT4050,1,4,4.15261,4.0003,2428.125,22.3,
1579,SBT4050,1,4,4.16243,4.0006,2428.125,22.3,
1579,SBT4050,1,4,4.17223,3.9997,2428.125,22.4,
1579,SBT4050,1,4,4.18216,4.0001,2428.125,22.3,
1579,SBT4050,1,4,4.19279,4,2428.125,22.3,
1579,SBT4050,1,4,4.20038,3.9102,2428.125,22.3,
1579,SBT4050,1,4,4.20008,3.6493,2428.125,22.4,
1579,SBT4050,1,4,4.200412,3.4426,2428.125,22.4,
1579,SBT4050,1,4,4.20004,3.2594,2428.125,22.3,
1579,SBT4050,1,4,4.20025,3.0859,2428.125,22.2,
1579,SBT4050,1,4,4.20027,2.931,2428.125,22.2,
1579,SBT4050,1,4,4.20039,2.7827,2428.125,22.2,
1579,SBT4050,1,4,4.19996,2.646,2428.125,22.1,
1579,SBT4050,1,4,4.200102,2.518,2428.125,22,
1579,SBT4050,1,4,4.20004,2.3966,2428.125,22,
1579,SBT4050,1,4,4.2002,2.2905,2428.125,21.8,
1579,SBT4050,1,4,4.2002,2.1876,2428.125,21.8,
1579,SBT4050,1,4,4.20019,2.0923,2428.125,21.8,
1579,SBT4050,1,4,4.20015,2.0065,2428.125,21.7,
1579,SBT4050,1,4,4.19998,1.9261,2428.125,21.7,
1579,SBT4050,1,4,4.19991,1.8495,2428.125,21.6,
1579,SBT4050,1,4,4.20022,1.7802,2428.125,21.4,
1579,SBT4050,1,4,4.20004,1.7109,2428.125,21.4,
1579,SBT4050,1,4,4.20007,1.6485,2428.125,21.3,
1579,SBT4050,1,4,4.20017,1.5865,2428.125,21.2,
1579,SBT4050,1,4,4.20032,1.5303,2428.125,21.2,
1579,SBT4050,1,4,4.19997,1.4777,2428.125,21.2,
1579,SBT4050,1,4,4.20016,1.4267,2428.125,21.1,
1579,SBT4050,1,4,4.200102,1.3772,2428.125,21,
1579,SBT4050,1,4,4.19998,1.3319,2428.125,21,
1579,SBT4050,1,4,4.20004,1.2888,2428.125,21,
1579,SBT4050,1,4,4.19992,1.249,2428.125,20.9,
1579,SBT4050,1,4,4.20029,1.2061,2428.125,20.8,
1579,SBT4050,1,4,4.20021,1.1709,2428.125,20.8,
1579,SBT4050,1,4,4.20015,1.1334,2428.125,20.8,
1579,SBT4050,1,4,4.20008,1.1002,2428.125,20.7,
1579,SBT4050,1,4,4.20005,1.0675,2428.125,20.7,
1579,SBT4050,1,4,4.200114,1.0344,2428.125,20.6,
1579,SBT4050,1,4,4.19989,1.0064,2428.125,20.6,
1579,SBT4050,1,4,4.19999,0.9764,2428.125,20.6,
1579,SBT4050,1,4,4.200114,0.9502,2428.125,20.5,
1579,SBT4050,1,4,4.19991,0.9225,2428.125,20.5,
1579,SBT4050,1,4,4.20023,0.8963,2428.125,20.5,
1579,SBT4050,1,4,4.20019,0.8733,2428.125,20.5,
1579,SBT4050,1,4,4.20001,0.8496,2428.125,20.4,
1579,SBT4050,1,4,4.19997,0.8281,2428.125,20.5,
1579,SBT4050,1,4,4.20007,0.8055,2428.125,20.5,
1579,SBT4050,1,4,4.2002,0.7842,2428.125,20.4,
1579,SBT4050,1,4,4.20019,0.7645,2428.125,20.4,
1579,SBT4050,1,4,4.20015,0.7433,2428.125,20.4,
1579,SBT4050,1,4,4.19984,0.7234,2428.125,20.4,
1579,SBT4050,1,4,4.20026,0.7053,2428.125,20.3,
1579,SBT4050,1,4,4.20001,0.6887,2428.125,20.3,
1579,SBT4050,1,4,4.20009,0.6728,2428.125,20.3,
1579,SBT4050,1,4,4.20028,0.6556,2428.125,20.3,
1579,SBT4050,1,4,4.200114,0.6412,2428.125,20.3,
1579,SBT4050,1,4,4.20017,0.6241,2428.125,20.3,
1579,SBT4050,1,4,4.200114,0.6106,2428.125,20.3,
1579,SBT4050,1,4,4.20025,0.595,2428.125,20.3,
1579,SBT4050,1,4,4.19992,0.5834,2428.125,20.3,
1579,SBT4050,1,4,4.19974,0.572,2428.125,20.3,
1579,SBT4050,1,4,4.199804,0.5578,2428.125,20.3,
1579,SBT4050,1,4,4.20028,0.5455,2428.125,20.2,
1579,SBT4050,1,4,4.19997,0.5339,2428.125,20.2,
1579,SBT4050,1,4,4.19999,0.5221,2428.125,20.2,
1579,SBT4050,1,4,4.20016,0.511,2428.125,20.2,
1579,SBT4050,1,4,4.20016,0.5003,2428.125,20.2,
1579,SBT4050,1,4,4.20025,0.4891,2428.125,20.2,
1579,SBT4050,1,4,4.19997,0.4783,2428.125,20.2,
1579,SBT4050,1,4,4.2002,0.46718,2428.125,20.2,
1579,SBT4050,1,4,4.19991,0.4597,2428.125,20.2,
1579,SBT4050,1,4,4.20023,0.44958,2428.125,20.1,
1579,SBT4050,1,4,4.20002,0.43992,2428.125,20.2,
1579,SBT4050,1,4,4.20005,0.43006,2428.125,20.1,
1579,SBT4050,1,4,4.19991,0.42248,2428.125,20.2,
1579,SBT4050,1,4,4.20028,0.41279,2428.125,20.1,
1579,SBT4050,1,4,4.20008,0.40552,2428.125,20.1,
1579,SBT4050,1,4,4.19995,0.39876,2428.125,20.1,
1579,SBT4050,1,4,4.20005,0.39058,2428.125,20.1,
1579,SBT4050,1,4,4.20005,0.38425,2428.125,20.1,
1579,SBT4050,1,4,4.19972,0.37689,2428.125,20.1,
1579,SBT4050,1,4,4.19986,0.36942,2428.125,20.1,
1579,SBT4050,1,4,4.19989,0.3605,2428.125,20.1,
1579,SBT4050,1,4,4.20021,0.35564,2428.125,20.2,
1579,SBT4050,1,4,4.20019,0.34955,2428.125,20.1,
1579,SBT4050,1,4,4.200126,0.34237,2428.125,20.1,
1579,SBT4050,1,4,4.20009,0.33746,2428.125,20.1,
1579,SBT4050,1,4,4.200102,0.33004,2428.125,20.1,
1579,SBT4050,1,4,4.20033,0.32296,2428.125,20.1,
1579,SBT4050,1,4,4.20009,0.31759,2428.125,20.1,
1579,SBT4050,1,4,4.20016,0.31347,2428.125,20.1,
1579,SBT4050,1,4,4.20004,0.30662,2428.125,20.1,
1579,SBT4050,1,4,4.19995,0.30221,2428.125,20.1,
1579,SBT4050,1,4,4.20005,0.29674,2428.125,20.1,
1579,SBT4050,1,4,4.20021,0.29185,2428.125,20.1,
1579,SBT4050,1,4,4.200114,0.28828,2428.125,20.1,
1579,SBT4050,1,4,4.20009,0.28469,2428.125,20.1,
1579,SBT4050,1,4,4.20023,0.2792,2428.125,20.1,
1579,SBT4050,1,4,4.20008,0.27369,2428.125,20.1,
1579,SBT4050,1,4,4.19996,0.26908,2428.125,20.1,
1579,SBT4050,1,4,4.19994,0.26536,2428.125,20.1,
1579,SBT4050,1,4,4.20021,0.26003,2428.125,20.1,
1579,SBT4050,1,4,4.20017,0.2551,2428.125,20.1,
1579,SBT4050,1,4,4.20009,0.2517,2428.125,20.1,
1579,SBT4050,1,4,4.20008,0.24764,2428.125,20.1,
1579,SBT4050,1,4,4.19995,0.24312,2428.125,20.1,
1579,SBT4050,1,4,4.19999,0.24027,2428.125,20.1,
1579,SBT4050,1,4,4.19998,0.23597,2428.125,20.1,
1579,SBT4050,1,4,4.200102,0.23331,2428.125,20.1,
1579,SBT4050,1,4,4.19998,0.22878,2428.125,20.1,
1579,SBT4050,1,4,4.20035,0.22505,2428.125,20.1,
1579,SBT4050,1,4,4.20025,0.22119,2428.125,20,
1579,SBT4050,1,4,4.20048,0.21814,2428.125,20.1,
1579,SBT4050,1,4,4.20001,0.21695,2428.125,20,
1579,SBT4050,1,4,4.20015,0.21265,2428.125,20,
1579,SBT4050,1,4,4.1999,0.21012,2428.125,20,
1579,SBT4050,1,4,4.200126,0.20706,2428.125,20,
1579,SBT4050,1,4,4.20009,0.20377,2428.125,20,
1579,SBT4050,1,4,4.20003,0.20166,2428.125,20.1,
1579,SBT4050,1,4,4.20016,0.19782,2428.125,20,
1579,SBT4050,1,4,4.200102,0.19542,2428.125,20,
1579,SBT4050,1,4,4.20016,0.19282,2428.125,20.1,
1579,SBT4050,1,4,4.2003,0.18939,2428.125,20,
1579,SBT4050,1,4,4.20028,0.18679,2428.125,20,
1579,SBT4050,1,4,4.199792,0.18539,2428.125,20,
1579,SBT4050,1,4,4.20002,0.1833,2428.125,20,
1579,SBT4050,1,4,4.1999,0.18106,2428.125,20,
1579,SBT4050,1,4,4.20034,0.17761,2428.125,20,
1579,SBT4050,1,4,4.20035,0.17434,2428.125,20,
1579,SBT4050,1,4,4.20026,0.17347,2428.125,20,
1579,SBT4050,1,4,4.20001,0.17085,2428.125,20,
1579,SBT4050,1,4,4.20009,0.16808,2428.125,20,
1579,SBT4050,1,4,4.19995,0.16638,2428.125,20,
1579,SBT4050,1,4,4.19994,0.1642,2428.125,20,
1579,SBT4050,1,4,4.19997,0.16187,2428.125,20,
1579,SBT4050,1,4,4.19992,0.16017,2428.125,20,
1579,SBT4050,1,4,4.200126,0.15781,2428.125,20,
1579,SBT4050,1,4,4.200126,0.1561,2428.125,20,
1579,SBT4050,1,4,4.20026,0.15363,2428.125,20,
1579,SBT4050,1,4,4.19978,0.15248,2428.125,20,
1579,SBT4050,1,4,4.20038,0.15101,2428.125,20,
1579,SBT4050,1,4,4.20026,0.14883,2428.125,20,
1579,SBT4050,1,4,4.20016,0.1469,2428.125,20,
1579,SBT4050,1,4,4.200126,0.14534,2428.125,20,
1579,SBT4050,1,4,4.20032,0.14354,2428.125,20,
1579,SBT4050,1,4,4.199804,0.14166,2428.125,20,
1579,SBT4050,1,4,4.20001,0.14054,2428.125,20,
1579,SBT4050,1,4,4.20005,0.13921,2428.125,20,
1579,SBT4050,1,4,4.2002,0.13744,2428.125,20,
1579,SBT4050,1,4,4.2002,0.13553,2428.125,20,
1579,SBT4050,1,4,4.19985,0.13453,2428.125,20,
1579,SBT4050,1,4,4.20007,0.13261,2428.125,20,
1579,SBT4050,1,4,4.20007,0.13098,2428.125,20,
1579,SBT4050,1,4,4.20004,0.13036,2428.125,20,
1579,SBT4050,1,4,4.2002,0.12967,2428.125,20,
1579,SBT4050,1,4,4.20008,0.12717,2428.125,20,
1579,SBT4050,1,4,4.20008,0.12585,2428.125,20,
1579,SBT4050,1,4,4.200114,0.12394,2428.125,20,
1579,SBT4050,1,4,4.19995,0.12271,2428.125,20,
1579,SBT4050,1,4,4.199792,0.1215,2428.125,20,
1579,SBT4050,1,4,4.20021,0.11861,2428.125,20,
1579,SBT4050,1,4,4.199828,0.11893,2428.125,20,
1579,SBT4050,1,4,4.20004,0.11856,2428.125,20,
1579,SBT4050,1,4,4.20015,0.11679,2428.125,20,
1579,SBT4050,1,4,4.20017,0.11431,2428.125,20,
1579,SBT4050,1,4,4.20003,0.11305,2428.125,20,
1579,SBT4050,1,4,4.200114,0.11158,2428.125,20,
1579,SBT4050,1,4,4.19992,0.11072,2428.125,20,
1579,SBT4050,1,4,4.20022,0.10954,2428.125,20,
1579,SBT4050,1,4,4.19994,0.1089,2428.125,19.9,
1579,SBT4050,1,4,4.19989,0.10984,2428.125,20,
1579,SBT4050,1,4,4.20028,0.10846,2428.125,20,
1579,SBT4050,1,4,4.20004,0.10705,2428.125,19.9,
1579,SBT4050,1,4,4.19992,0.1062,2428.125,19.9,
1579,SBT4050,1,4,4.200114,0.10448,2428.125,19.9,
1579,SBT4050,1,4,4.20022,0.10379,2428.125,19.9,
1579,SBT4050,1,4,4.19998,0.10154,2428.125,19.9,
1579,SBT4050,1,4,4.19978,0.10083,2428.125,19.9,
1579,SBT4050,1,4,4.20021,0.1008,2428.125,19.9,
1579,SBT4050,1,4,4.19589,0,2428.125,20,
1579,SBT4050,1,4,4.194606,0,2428.125,19.9,
1579,SBT4050,1,4,4.19373,0,2428.125,19.9,
1579,SBT4050,1,4,4.19272,0,2428.125,19.9,
1579,SBT4050,1,4,4.19208,0,2428.125,19.9,
1579,SBT4050,1,4,4.19112,0,2428.125,20,
1579,SBT4050,1,4,4.19063,0,2428.125,19.9,
1579,SBT4050,1,4,4.19004,0,2428.125,19.9,
1579,SBT4050,1,4,4.18933,0,2428.125,19.9,
1579,SBT4050,1,4,4.18884,0,2428.125,19.9,
1579,SBT4050,1,4,4.1882,0,2428.125,19.9,
1579,SBT4050,1,4,4.18744,0,2428.125,19.9,
1579,SBT4050,1,4,4.18723,0,2428.125,19.9,
1579,SBT4050,1,4,4.18654,0,2428.125,19.9,
1579,SBT4050,1,4,4.185972,0,2428.125,19.9,
1579,SBT4050,1,4,4.18537,0,2428.125,20,
1579,SBT4050,1,4,4.185018,0,2428.125,19.9,
1579,SBT4050,1,4,4.18443,0,2428.125,19.9,
1579,SBT4050,1,4,4.18386,0,2428.125,19.9,
1579,SBT4050,1,4,4.184122,0,2428.125,19.9,
1579,SBT4050,1,4,4.18377,0,2428.125,19.9,
1579,SBT4050,1,4,4.18314,0,2428.125,19.9,
1579,SBT4050,1,4,4.18266,0,2428.125,19.9,
1579,SBT4050,1,4,4.1826,0,2428.125,19.9,
1579,SBT4050,1,4,4.18211,0,2428.125,19.9,
1579,SBT4050,1,4,4.1815,0,2428.125,19.9,
1579,SBT4050,1,4,4.181,0,2428.125,19.8,
1579,SBT4050,1,4,4.1811,0,2428.125,19.9,
1579,SBT4050,1,4,4.180332,0,2428.125,19.9,
1579,SBT4050,1,4,4.180198,0,2428.125,19.9,
1579,SBT4050,1,4,4.17979,0,2428.125,19.9,
1579,SBT4050,1,4,4.17986,0,2428.125,19.9,
1579,SBT4050,1,4,4.17922,0,2428.125,19.9,
1579,SBT4050,1,4,4.17912,0,2428.125,19.9,
1579,SBT4050,1,4,4.17868,0,2428.125,19.9,
1579,SBT4050,1,4,4.17834,0,2428.125,19.9,
1579,SBT4050,1,4,4.17798,0,2428.125,20,
1579,SBT4050,1,4,4.17753,0,2428.125,19.9,
1579,SBT4050,1,4,4.17734,0,2428.125,19.9,
1579,SBT4050,1,4,4.17732,0,2428.125,19.9,
1579,SBT4050,1,4,4.17691,0,2428.125,19.9,
1579,SBT4050,1,4,4.17641,0,2428.125,19.9,
1579,SBT4050,1,4,4.17629,0,2428.125,19.9,
1579,SBT4050,1,4,4.176024,0,2428.125,19.9,
1579,SBT4050,1,4,4.17541,0,2428.125,19.9,
1579,SBT4050,1,4,4.17526,0,2428.125,19.9,
1579,SBT4050,1,4,4.17511,0,2428.125,19.9,
1579,SBT4050,1,4,4.17483,0,2428.125,19.9,
1579,SBT4050,1,4,4.17477,0,2428.125,19.9,
1579,SBT4050,1,4,4.17427,0,2428.125,19.9,
1579,SBT4050,1,4,4.1741,0,2428.125,20,
1579,SBT4050,1,4,4.17395,0,2428.125,19.9,
1579,SBT4050,1,4,4.173582,0,2428.125,19.9,
1579,SBT4050,1,4,4.17338,0,2428.125,19.9,
1579,SBT4050,1,4,4.173188,0,2428.125,19.9,
1579,SBT4050,1,4,4.173,0,2428.125,19.9,
1579,SBT4050,1,4,4.17259,0,2428.125,19.9,
1579,SBT4050,1,4,4.17237,0,2428.125,19.9,
1579,SBT4050,1,4,4.17207,0,2428.125,19.9,
1579,SBT4050,1,4,4.17228,0,2428.125,19.9,
1579,SBT4050,1,4,4.17184,0,2428.125,19.9,
1579,SBT4050,1,4,4.17157,0,2428.125,19.9,
1579,SBT4050,1,4,4.17123,0,2428.125,20,
1579,SBT4050,1,4,4.17113,0,2428.125,19.9,
1579,SBT4050,1,4,4.170942,0,2428.125,20,
1579,SBT4050,1,4,4.17048,0,2428.125,19.9,
1579,SBT4050,1,4,4.170318,0,2428.125,19.9,
1579,SBT4050,1,4,4.170242,0,2428.125,19.9,
1579,SBT4050,1,4,4.16996,0,2428.125,20,
1579,SBT4050,1,4,4.169934,0,2428.125,19.9,
1579,SBT4050,1,4,4.169622,0,2428.125,19.9,
1579,SBT4050,1,4,4.16947,0,2428.125,19.9,
1579,SBT4050,1,4,4.169504,0,2428.125,19.9,
1579,SBT4050,1,4,4.16949,0,2428.125,19.9,
1579,SBT4050,1,4,4.16908,0,2428.125,19.9,
1579,SBT4050,1,4,4.16872,0,2428.125,19.9,
1579,SBT4050,1,4,4.16903,0,2428.125,20,
1579,SBT4050,1,4,4.16842,0,2428.125,19.9,
1579,SBT4050,1,4,4.168184,0,2428.125,19.9,
1579,SBT4050,1,4,4.16832,0,2428.125,19.9,
1579,SBT4050,1,4,4.16762,0,2428.125,20,
1579,SBT4050,1,4,4.16752,0,2428.125,19.9,
1579,SBT4050,1,4,4.16767,0,2428.125,19.9,
1579,SBT4050,1,4,4.16732,0,2428.125,19.9,
1579,SBT4050,1,4,4.16703,0,2428.125,19.8,
1579,SBT4050,1,4,4.167208,0,2428.125,19.9,
1579,SBT4050,1,4,4.16693,0,2428.125,19.9,
1579,SBT4050,1,4,4.16633,0,2428.125,19.9,
1579,SBT4050,1,4,4.16624,0,2428.125,19.9,
1579,SBT4050,1,4,4.16611,0,2428.125,19.9,
1579,SBT4050,1,4,4.166386,0,2428.125,19.9,
1579,SBT4050,1,4,4.16566,0,2428.125,19.9,
1579,SBT4050,1,4,4.16607,0,2428.125,19.9,
1579,SBT4050,1,4,4.165852,0,2428.125,19.9,
1579,SBT4050,1,4,4.16554,0,2428.125,19.9,
1579,SBT4050,1,4,4.16536,0,2428.125,19.9,
1579,SBT4050,1,4,4.16539,0,2428.125,19.9,
1579,SBT4050,1,4,4.16527,0,2428.125,19.9,
1579,SBT4050,1,4,4.16506,0,2428.125,19.9,
1579,SBT4050,1,4,4.16482,0,2428.125,19.9,
1579,SBT4050,1,4,4.1645,0,2428.125,19.9,
1579,SBT4050,1,4,4.16446,0,2428.125,19.9,
1579,SBT4050,1,4,4.16403,0,2428.125,19.9,
1579,SBT4050,1,4,4.164176,0,2428.125,19.9,
1579,SBT4050,1,4,4.16407,0,2428.125,20,
1579,SBT4050,1,4,4.16372,0,2428.125,19.9,
1579,SBT4050,1,4,4.16382,0,2428.125,19.9,
1579,SBT4050,1,4,4.16336,0,2428.125,19.9,
1579,SBT4050,1,4,4.16362,0,2428.125,19.9,
1579,SBT4050,1,4,4.163176,0,2428.125,19.9,
1579,SBT4050,1,4,4.16305,0,2428.125,19.9,
1579,SBT4050,1,4,4.16327,0,2428.125,19.9,
1579,SBT4050,1,4,4.16302,0,2428.125,19.9,
1579,SBT4050,1,4,4.16277,0,2428.125,19.9,
1579,SBT4050,1,4,4.16262,0,2428.125,19.9,
1579,SBT4050,1,4,4.16236,0,2428.125,19.9,
1579,SBT4050,1,4,4.16264,0,2428.125,19.9,
1579,SBT4050,1,4,4.162186,0,2428.125,19.9,
1579,SBT4050,1,4,4.16235,0,2428.125,19.9,
1579,SBT4050,1,4,4.16214,0,2428.125,19.9,
1579,SBT4050,1,4,4.16208,0,2428.125,19.9,
1579,SBT4050,1,4,4.16175,0,2428.125,19.9,
1579,SBT4050,1,4,4.16131,0,2428.125,19.9,
1579,SBT4050,1,4,4.16152,0,2428.125,19.9,
1579,SBT4050,1,4,4.16113,0,2428.125,19.9,
1579,SBT4050,1,4,4.161076,0,2428.125,20,
1579,SBT4050,1,4,4.1609,0,2428.125,20,
1579,SBT4050,1,4,4.16086,0,2428.125,20,
1579,SBT4050,1,4,4.161,0,2428.125,19.9,
1579,SBT4050,1,4,4.160712,0,2428.125,19.9,
1579,SBT4050,1,4,4.1609,0,2428.125,20,
1579,SBT4050,1,4,4.16017,0,2428.125,20,
1579,SBT4050,1,4,4.16042,0,2428.125,20,
1579,SBT4050,1,4,4.16027,0,2428.125,20,
1579,SBT4050,1,4,4.160218,0,2428.125,19.9,
1579,SBT4050,1,4,4.16023,0,2428.125,20,
1579,SBT4050,1,4,4.15988,0,2428.125,19.9,
1579,SBT4050,1,4,4.15959,0,2428.125,20,
1579,SBT4050,1,4,4.159748,0,2428.125,19.9,
1579,SBT4050,1,4,4.15977,0,2428.125,20,
1579,SBT4050,1,4,4.15952,0,2428.125,20,
1579,SBT4050,1,4,4.15948,0,2428.125,19.9,
1579,SBT4050,1,4,4.159318,0,2428.125,20,
1579,SBT4050,1,4,4.15905,0,2428.125,19.9,
1579,SBT4050,1,4,4.15908,0,2428.125,20,
1579,SBT4050,1,4,4.15913,0,2428.125,20,
1579,SBT4050,1,4,4.15896,0,2428.125,20,
1579,SBT4050,1,4,4.1587,0,2428.125,20,
1579,SBT4050,1,4,4.1588,0,2428.125,19.9,
1579,SBT4050,1,4,4.15864,0,2428.125,20,
1579,SBT4050,1,4,4.15853,0,2428.125,19.9,
1579,SBT4050,1,4,4.158608,0,2428.125,20,
1579,SBT4050,1,4,4.15813,0,2428.125,20,
1579,SBT4050,1,4,4.15836,0,2428.125,20,
1579,SBT4050,1,4,4.15802,0,2428.125,20,
1579,SBT4050,1,4,4.15795,0,2428.125,19.9,
1579,SBT4050,1,4,4.15817,0,2428.125,20,
1579,SBT4050,1,4,4.15774,0,2428.125,20,
1579,SBT4050,1,4,4.15778,0,2428.125,20,
1579,SBT4050,1,4,4.15754,0,2428.125,19.9,
1579,SBT4050,1,4,4.157332,0,2428.125,20,
1579,SBT4050,1,4,4.15755,0,2428.125,20,
1579,SBT4050,1,4,4.1575,0,2428.125,20,
1579,SBT4050,1,4,4.15726,0,2428.125,20,
1579,SBT4050,1,4,4.157206,0,2428.125,20,
1579,SBT4050,1,4,4.15661,0,2428.125,19.9,
1579,SBT4050,1,4,4.15678,0,2428.125,20,
1579,SBT4050,1,4,4.1568,0,2428.125,20,
1579,SBT4050,1,4,4.15661,0,2428.125,20,
1579,SBT4050,1,4,4.15626,0,2428.125,20,
1579,SBT4050,1,4,4.15645,0,2428.125,20,
1579,SBT4050,1,4,4.15633,0,2428.125,20,
1579,SBT4050,1,4,4.156148,0,2428.125,20,
1579,SBT4050,1,4,4.156268,0,2428.125,19.9,
1579,SBT4050,1,4,4.155966,0,2428.125,20,
1579,SBT4050,1,4,4.15605,0,2428.125,20,
1579,SBT4050,1,4,4.15571,0,2428.125,20,
1579,SBT4050,1,4,4.15597,0,2428.125,20,
1579,SBT4050,1,4,4.156,0,2428.125,20,
1579,SBT4050,1,4,4.155606,0,2428.125,20,
1579,SBT4050,1,4,4.15572,0,2428.125,20,
1579,SBT4050,1,4,4.1557,0,2428.125,20,
1579,SBT4050,1,4,4.155148,0,2428.125,20,
1579,SBT4050,1,4,4.155484,0,2428.125,20,
1579,SBT4050,1,4,4.15541,0,2428.125,20,
1579,SBT4050,1,4,4.15513,0,2428.125,20,
1579,SBT4050,1,4,4.155044,0,2428.125,20,
1579,SBT4050,1,4,4.15518,0,2428.125,20,
1579,SBT4050,1,4,4.154648,0,2428.125,20,
1579,SBT4050,1,4,4.15496,0,2428.125,20,
1579,SBT4050,1,4,4.154838,0,2428.125,20,
1579,SBT4050,1,4,4.15467,0,2428.125,20,
1579,SBT4050,1,4,4.15482,0,2428.125,20,
1579,SBT4050,1,4,4.15482,0,2428.125,20,
1579,SBT4050,1,4,4.15449,0,2428.125,20,
1579,SBT4050,1,4,4.15422,0,2428.125,20,
1579,SBT4050,1,4,4.154188,0,2428.125,20,
1579,SBT4050,1,4,4.15419,0,2428.125,19.9,
1579,SBT4050,1,4,4.154182,0,2428.125,20,
1579,SBT4050,1,4,4.15409,0,2428.125,20,
1579,SBT4050,1,4,4.1538,0,2428.125,20,
1579,SBT4050,1,4,4.15388,0,2428.125,20,
1579,SBT4050,1,4,4.15371,0,2428.125,19.9,
1579,SBT4050,1,4,4.1535,0,2428.125,20,
1579,SBT4050,1,4,4.153452,0,2428.125,19.9,
1579,SBT4050,1,4,4.15343,0,2428.125,20,
1579,SBT4050,1,4,4.153352,0,2428.125,20,
1579,SBT4050,1,4,4.15351,0,2428.125,20,
1579,SBT4050,1,4,4.1535,0,2428.125,20,
1579,SBT4050,1,4,4.15312,0,2428.125,19.9,
1579,SBT4050,1,4,4.15296,0,2428.125,20,
1579,SBT4050,1,4,4.15319,0,2428.125,20,
1579,SBT4050,1,4,4.16046,0.18701,2428.134,20,
1579,SBT4050,1,4,4.15759,0.005999,2428.135,19.9,
1579,SBT4050,1,4,3.89658,-6.95,2438.549,20,
1579,SBT4050,1,4,4.080828,0.5231,2461.943,20.2,
1579,SBT4050,1,4,3.958494,-2.3068,2482.532,20.3,
1579,SBT4050,1,4,3.79693,-7.262,2504.807,20.5,
1579,SBT4050,1,4,3.995252,0.077,2527.24,20.8,
1579,SBT4050,1,4,3.7006,-10.178,2545.873,20.9,
1579,SBT4050,1,4,4.0587,3.9996,2577.885,21.2,
1579,SBT4050,1,4,3.861692,-2.4527,2599.877,21.4,
1579,SBT4050,1,4,4.12139,3.9999,2600.666,21.6,
1579,SBT4050,1,4,4.01978,-0.013999,2600.795,21.5,
1579,SBT4050,1,4,3.579612,-14.497,2619.155,21.4,
1579,SBT4050,1,4,3.9612,0.664,2649.133,21.6,
1579,SBT4050,1,4,3.94934,0.17199,2658.987,21.9,
1579,SBT4050,1,4,3.99655,-0.002999,2659.036,21.7,
1579,SBT4050,1,4,3.85339,-5.48,2660.657,21.6,
1579,SBT4050,1,4,3.71626,-6.101,2714.178,21.7,
1579,SBT4050,1,4,3.58978,-9.749,2756.787,22.2,
1579,SBT4050,1,4,3.95733,3.876,2774.459,22.6,
1579,SBT4050,1,4,3.937702,-0.045999,2774.464,22.7,
1579,SBT4050,1,4,3.9392,-0.078,2774.751,22.5,
1579,SBT4050,1,4,3.75641,-4.2435,2805.407,22.3,
1579,SBT4050,1,4,3.74084,-4.2428,2830.997,22.4,
1579,SBT4050,1,4,3.85734,-0.09197,2845.729,22.5,
1579,SBT4050,1,4,3.68618,-8.295,2851.573,22.3,
1579,SBT4050,1,4,3.78766,-1.8519,2881.537,22.3,
1579,SBT4050,1,4,3.74611,-3.4301,2896.599,22.2,
1579,SBT4050,1,4,3.80262,-1.6742,2908.827,22.2,
1579,SBT4050,1,4,3.77797,-1.651,2927.582,22.1,
1579,SBT4050,1,4,3.87295,-0.06299,2927.89,22,
1579,SBT4050,1,4,3.82378,-2.2249,2928.911,21.9,
1579,SBT4050,1,4,3.69081,-5.096,2952.253,21.7,
1579,SBT4050,1,4,3.69644,-4.4059,2971.763,21.7,
1579,SBT4050,1,4,3.87819,2.4898,2987.79,21.8,
1579,SBT4050,1,4,3.84565,-0.015998,2987.873,21.7,
1579,SBT4050,1,4,3.85279,-0.15699,2988.324,21.6,
1579,SBT4050,1,4,3.68702,-5.956,2994.985,21.5,
1579,SBT4050,1,4,3.69841,-3.0964,3025.467,21.4,
1579,SBT4050,1,4,3.561902,-8.632,3041.256,21.5,
1579,SBT4050,1,4,3.4755,-11.932,3061.504,21.7,
1579,SBT4050,1,4,3.68714,-1.994,3095.078,21.7,
1579,SBT4050,1,4,3.51923,-10.777,3102.71,21.9,
1579,SBT4050,1,4,3.60796,-3.5951,3150.318,22,
1579,SBT4050,1,4,3.51135,-8.68,3166.071,22.4,
1579,SBT4050,1,4,3.85697,3.5999,3173.167,22.4,
1579,SBT4050,1,4,3.79629,-0.06799,3173.361,22.3,
1579,SBT4050,1,4,3.5486,-9.679,3179.62,22.2,
1579,SBT4050,1,4,3.78257,3.4728,3226.492,22.3,
1579,SBT4050,1,4,3.62929,-4.9001,3232.245,22.5,
1579,SBT4050,1,4,3.7783,-0.07097,3236.592,22.5,
1579,SBT4050,1,4,3.78311,-0.06999,3236.886,22.3,
1579,SBT4050,1,4,3.42523,-9.734,3285.156,22.3,
1579,SBT4050,1,4,3.407,-10.208,3324.346,22.7,
1579,SBT4050,1,4,3.63612,-0.7591,3355.315,23.1,
1579,SBT4050,1,4,3.82672,3.8078,3355.482,23.2,
1579,SBT4050,1,4,3.740252,-0.039001,3355.745,22.9,
1579,SBT4050,1,4,3.40406,-10.82,3384.262,22.7,
1579,SBT4050,1,4,3.51229,-5.638,3412.65,22.9,
1579,SBT4050,1,4,3.648682,-0.268,3429.301,22.8,
1579,SBT4050,1,4,3.78282,2.4978,3429.343,22.7,
1579,SBT4050,1,4,3.52326,-4.772,3464.799,22.6,
1579,SBT4050,1,4,3.52103,-5.172,3479.301,22.7,
1579,SBT4050,1,4,3.62322,-0.7799,3495.687,22.6,
1579,SBT4050,1,4,3.54988,-3.5121,3511.723,22.4,
1579,SBT4050,1,4,3.68811,0.17701,3515.924,22.3,
1579,SBT4050,1,4,3.68636,-0.07098,3516.18,22.1,
1579,SBT4050,1,4,3.47898,-6.783,3533.147,22,
1579,SBT4050,1,4,3.51258,-4.4894,3555.206,22,
1579,SBT4050,1,4,3.554744,-2.052,3576.301,22,
1579,SBT4050,1,4,3.65122,-0.07499,3576.834,21.8,
1579,SBT4050,1,4,3.65991,-0.21402,3577.169,21.7,
1579,SBT4050,1,4,3.60765,-2.4561,3578.846,21.6,
1579,SBT4050,1,4,3.40955,-7.626,3608.067,21.5,
1579,SBT4050,1,4,3.42999,-7.656,3621.79,21.6,
1579,SBT4050,1,4,3.48909,-5.448,3640.897,21.6,
1579,SBT4050,1,4,3.40004,-6.021,3681.978,21.8,
1579,SBT4050,1,4,3.617278,-0.10799,3688.464,22,
1579,SBT4050,1,4,3.294228,-9.021,3734.609,22,
1579,SBT4050,1,4,3.42014,-6.348,3748.099,22.5,
1579,SBT4050,1,4,3.66307,2.8671,3765.05,22.4,
1579,SBT4050,1,4,3.62472,-0.085,3765.247,22.3,
1579,SBT4050,1,4,3.605344,-0.9658,3765.762,22.2,
1579,SBT4050,1,4,3.357126,-6.063,3816.073,22.1,
1579,SBT4050,1,4,3.53343,-2.7916,3818.808,22.5,
1579,SBT4050,1,4,3.61879,0.06598,3827.946,22.5,
1579,SBT4050,1,4,3.61637,-0.07098,3828.285,22.3,
1579,SBT4050,1,4,3.15387,-14.498,3861.696,22.1,
1579,SBT4050,1,4,3.3061,-7.124,3905.832,22.5,
1579,SBT4050,1,4,3.42224,-2.5111,3943.478,23,
1579,SBT4050,1,4,3.657616,3.9998,3945.563,23.2,
1579,SBT4050,1,4,3.57914,-0.078,3945.752,22.9,
1579,SBT4050,1,4,3.23568,-12.163,3960.056,22.7,
1579,SBT4050,1,4,3.34524,-6.068,3995.738,22.8,
1579,SBT4050,1,4,3.40188,-3.8873,4015.995,22.9,
1579,SBT4050,1,4,3.65649,3.9996,4018.619,22.7,
1579,SBT4050,1,4,3.3065,-7.026,4047.526,22.6,
1579,SBT4050,1,4,3.39817,-4.4121,4062.458,22.7,
1579,SBT4050,1,4,3.41705,-2.9607,4082.229,22.6,
1579,SBT4050,1,4,3.369446,-4.2557,4097.585,22.5,
1579,SBT4050,1,4,3.63145,4,4105.466,22.4,
1579,SBT4050,1,4,3.54386,-0.07699,4105.69,22.3,
1579,SBT4050,1,4,3.37024,-5.505,4115.78,22.1,
1579,SBT4050,1,4,3.38275,-3.6933,4140.104,22,
1579,SBT4050,1,4,3.32468,-5.064,4160.89,22.1,
1579,SBT4050,1,4,3.51196,-0.074,4166.593,22,
1579,SBT4050,1,4,3.525398,-0.075,4166.906,21.9,
1579,SBT4050,1,4,3.53306,-0.093,4167.52,21.7,
1579,SBT4050,1,4,3.28375,-6.141,4190.427,21.6,
1579,SBT4050,1,4,3.52649,0.9121,4206.991,21.8,
1579,SBT4050,1,4,3.58401,3.8003,4229.523,21.9,
1579,SBT4050,1,4,3.1848,-6.669,4265.071,22,
1579,SBT4050,1,4,3.580518,4.0001,4278.85,22.4,
1579,SBT4050,1,4,2.98134,-11.778,4313.728,22.4,
1579,SBT4050,1,4,3.42804,-1.234,4334.358,23.1,
1579,SBT4050,1,4,3.557096,3.9999,4352.396,23.1,
1579,SBT4050,1,4,3.50462,-0.05199,4352.402,23,
1579,SBT4050,1,4,3.49447,-0.06599,4352.846,22.8,
1579,SBT4050,1,4,2.94223,-11.934,4392.04,22.6,
1579,SBT4050,1,4,3.58385,3.9999,4404.155,23.3,
1579,SBT4050,1,4,3.58529,4.0001,4413.727,23.3,
1579,SBT4050,1,4,3.493834,0.146,4413.781,23.1,
1579,SBT4050,1,4,2.95249,-14.499,4427.905,22.8,
1579,SBT4050,1,4,3.00767,-9.507,4473.773,23.2,
1579,SBT4050,1,4,3.31279,-1.4477,4497.657,23.7,
1579,SBT4050,1,4,3.59095,3.9998,4497.885,23.6,
1579,SBT4050,1,4,3.49615,0.016999,4497.904,23.4,
1579,SBT4050,1,4,3.3478,-4.481,4499.173,23.2,
1579,SBT4050,1,4,3.148015,-5.911,4538.639,23.1,
1579,SBT4050,1,4,3.26221,-3.2281,4556.633,23.4,
1579,SBT4050,1,4,3.5679,4.0001,4560.117,23.3,
1579,SBT4050,1,4,3.23819,-5.21,4570.405,22.9,
1579,SBT4050,1,4,3.56467,3.4587,4577.358,22.9,
1579,SBT4050,1,4,3.50216,1.3629,4579.709,22.6,
1579,SBT4050,1,4,3.45928,-1.0748,4580.076,22.4,
1579,SBT4050,1,4,3.55939,2.273,4581.522,22.2,
1579,SBT4050,1,4,3.48699,-0.062,4581.722,22,
1579,SBT4050,1,4,3.416764,-1.4179,4585.422,21.9,
1579,SBT4050,1,4,3.2394,-4.0011,4605.542,21.7,
1579,SBT4050,1,4,3.1811,-4.052,4625.625,21.8,
1579,SBT4050,1,4,3.42285,0.137,4634.519,21.8,
1579,SBT4050,1,4,3.42893,-0.030002,4634.659,21.8,
1579,SBT4050,1,4,3.43613,-0.041998,4634.83,21.6,
1579,SBT4050,1,4,3.44106,-0.034996,4634.993,21.4,
1579,SBT4050,1,4,3.44435,-0.031997,4635.164,21.3,
1579,SBT4050,1,4,3.44617,-0.038999,4635.319,21.2,
1579,SBT4050,1,4,3.44811,-0.041999,4635.462,21.1,
1579,SBT4050,1,4,3.44927,-0.036998,4635.623,21,
1579,SBT4050,1,4,3.45053,-0.038,4635.775,20.9,
1579,SBT4050,1,4,3.45157,-0.034996,4635.932,20.8,
1579,SBT4050,1,4,3.45223,-0.035982,4636.091,20.7,
1579,SBT4050,1,4,3.4529,-0.040001,4636.25,20.6,
1579,SBT4050,1,4,3.45346,-0.034002,4636.409,20.6,
1579,SBT4050,1,4,3.454308,-0.030001,4636.567,20.5,
1579,SBT4050,1,4,3.45454,-0.034001,4636.713,20.5,
1579,SBT4050,1,4,3.455486,-0.029001,4636.857,20.4,
1579,SBT4050,1,4,3.45587,-0.03599,4636.999,20.4,
1579,SBT4050,1,4,3.45625,-0.029005,4637.12,20.4,
1579,SBT4050,1,4,3.45741,-0.014999,4637.234,20.4,
1579,SBT4050,1,4,3.457188,-0.025998,4637.362,20.2,
1579,SBT4050,1,4,3.457068,-0.037,4637.493,20.3,
1579,SBT4050,1,4,3.457496,-0.033001,4637.619,20.3,
1579,SBT4050,1,4,3.45761,-0.030998,4637.747,20.2,
1579,SBT4050,1,4,3.45857,-0.018999,4637.862,20.2,
1579,SBT4050,1,4,3.45811,-0.026998,4637.98,20.2,
1579,SBT4050,1,4,3.45879,-0.027001,4638.097,20.1,
1579,SBT4050,1,4,3.45872,-0.033002,4638.221,20.1,
1579,SBT4050,1,4,3.45928,-0.019997,4638.348,20.1,
1579,SBT4050,1,4,3.4595,-0.025998,4638.477,20.2,
1579,SBT4050,1,4,3.45939,-0.031002,4638.598,20.1,
1579,SBT4050,1,4,3.46121,0,4638.627,20.1,
1579,SBT4050,1,4,3.46175,0,4638.627,20.1,
1579,SBT4050,1,4,3.46191,0,4638.627,20.1,
1579,SBT4050,1,4,3.4624,0,4638.627,20,
1579,SBT4050,1,4,3.46279,0,4638.627,20.1,
1579,SBT4050,1,4,3.46281,0,4638.627,20.1,
1579,SBT4050,1,4,3.46312,0,4638.627,20,
1579,SBT4050,1,4,3.46365,0,4638.627,20.1,
1579,SBT4050,1,4,3.46397,0,4638.627,20,
1579,SBT4050,1,4,3.4641,0,4638.627,20.1,
1579,SBT4050,1,4,3.46455,0,4638.627,20.1,
1579,SBT4050,1,4,3.464654,0,4638.627,20,
1579,SBT4050,1,4,3.46486,0,4638.627,20.1,
1579,SBT4050,1,4,3.46496,0,4638.627,20,
1579,SBT4050,1,4,3.46514,0,4638.627,20,
1579,SBT4050,1,4,3.46523,0,4638.627,20,
1579,SBT4050,1,4,3.46538,0,4638.627,20,
1579,SBT4050,1,4,3.46579,-0.000109,4638.627,,