File: Dataset/AANDCNet/cell2/cycle_13/Test1527.csv
Test:,1527,,,,,,,
Start Time:,7/13/2021 10:10 PM,,,,,,,
End Time:,7/14/2021 6:01 PM,,,,,,,
Test,Rack,Shelf,Position,Voltage (V),Current (A),Discharge Capacity (mAh),TC_1 (C),
1527,SBT4050,1,5,3.51767,0,0,,
1527,SBT4050,1,5,3.51881,0,0,20.3,
1527,SBT4050,1,5,3.51864,0,0,20.4,
1527,SBT4050,1,5,3.51847,0,0,20.4,
1527,SBT4050,1,5,3.51854,0,0,20.4,
1527,SBT4050,1,5,3.51862,0,0,20.4,
1527,SBT4050,1,5,3.5187,0,0,20.4,
1527,SBT4050,1,5,3.51844,0,0,20.4,
1527,SBT4050,1,5,3.64267,4.0002,0,20.4,
1527,SBT4050,1,5,3.66121,3.9997,0,20.4,
1527,SBT4050,1,5,3.67461,3.9997,0,20.4,
1527,SBT4050,1,5,3.68557,4.0002,0,20.5,
1527,SBT4050,1,5,3.694936,4.0001,0,20.6,
1527,SBT4050,1,5,3.70282,3.9996,0,20.6,
1527,SBT4050,1,5,3.70981,3.9996,0,20.7,
1527,SBT4050,1,5,3.716336,3.9999,0,20.7,
1527,SBT4050,1,5,3.72211,4.0002,0,20.8,
1527,SBT4050,1,5,3.727678,3.9996,0,20.8,
1527,SBT4050,1,5,3.733184,3.9999,0,20.8,
1527,SBT4050,1,5,3.73825,3.9995,0,20.9,
1527,SBT4050,1,5,3.74363,3.9998,0,20.9,
1527,SBT4050,1,5,3.74821,4.0004,0,21,
1527,SBT4050,1,5,3.75244,3.9998,0,21.1,
1527,SBT4050,1,5,3.75626,4.0001,0,21,
1527,SBT4050,1,5,3.75974,4.0007,0,21.1,
1527,SBT4050,1,5,3.76249,4.0001,0,21.1,
1527,SBT4050,1,5,3.76524,3.9998,0,21.1,
1527,SBT4050,1,5,3.767864,4.0006,0,21.2,
1527,SBT4050,1,5,3.77012,3.9994,0,21.2,
1527,SBT4050,1,5,3.7723,4.0003,0,21.2,
1527,SBT4050,1,5,3.77449,4,0,21.3,
1527,SBT4050,1,5,3.77672,4.0001,0,21.3,
1527,SBT4050,1,5,3.77892,4,0,21.3,
1527,SBT4050,1,5,3.78072,3.9994,0,21.4,
1527,SBT4050,1,5,3.78296,4.0006,0,21.4,
1527,SBT4050,1,5,3.785056,4.0003,0,21.4,
1527,SBT4050,1,5,3.78735,3.9998,0,21.5,
1527,SBT4050,1,5,3.78917,4.0003,0,21.4,
1527,SBT4050,1,5,3.79157,3.9995,0,21.5,
1527,SBT4050,1,5,3.79402,3.9999,0,21.5,
1527,SBT4050,1,5,3.79628,4.0002,0,21.6,
1527,SBT4050,1,5,3.7987,3.9996,0,21.6,
1527,SBT4050,1,5,3.80127,4.0003,0,21.5,
1527,SBT4050,1,5,3.80378,4,0,21.6,
1527,SBT4050,1,5,3.80615,4.0006,0,21.5,
1527,SBT4050,1,5,3.80864,4.0002,0,21.7,
1527,SBT4050,1,5,3.81122,3.9996,0,21.6,
1527,SBT4050,1,5,3.81397,4.0002,0,21.7,
1527,SBT4050,1,5,3.81651,3.9996,0,21.6,
1527,SBT4050,1,5,3.81904,3.9999,0,21.7,
1527,SBT4050,1,5,3.8219,3.9997,0,21.8,
1527,SBT4050,1,5,3.824774,4.0006,0,21.8,
1527,SBT4050,1,5,3.82765,3.9997,0,21.8,
1527,SBT4050,1,5,3.830342,3.9996,0,21.8,
1527,SBT4050,1,5,3.833126,4.0003,0,21.8,
1527,SBT4050,1,5,3.836062,4.0002,0,21.7,
1527,SBT4050,1,5,3.83882,3.9996,0,21.8,
1527,SBT4050,1,5,3.84178,3.9999,0,21.8,
1527,SBT4050,1,5,3.84463,4,0,21.9,
1527,SBT4050,1,5,3.84741,3.9999,0,21.9,
1527,SBT4050,1,5,3.85051,4,0,21.9,
1527,SBT4050,1,5,3.85344,4,0,21.9,
1527,SBT4050,1,5,3.85617,4.0002,0,21.9,
1527,SBT4050,1,5,3.859316,4.0004,0,22,
1527,SBT4050,1,5,3.86222,4.0001,0,21.9,
1527,SBT4050,1,5,3.86545,3.9999,0,22,
1527,SBT4050,1,5,3.86847,3.9998,0,22,
1527,SBT4050,1,5,3.87161,3.9999,0,22,
1527,SBT4050,1,5,3.87459,3.9992,0,22.1,
1527,SBT4050,1,5,3.87766,4.0002,0,22.1,
1527,SBT4050,1,5,3.88077,3.9995,0,22.1,
1527,SBT4050,1,5,3.88377,4.0009,0,22.1,
1527,SBT4050,1,5,3.88698,3.9996,0,22.2,
1527,SBT4050,1,5,3.89035,3.9998,0,22.2,
1527,SBT4050,1,5,3.89337,3.9996,0,22.2,
1527,SBT4050,1,5,3.89653,4.0001,0,22.1,
1527,SBT4050,1,5,3.90001,4,0,22.1,
1527,SBT4050,1,5,3.903174,3.9997,0,22.1,
1527,SBT4050,1,5,3.9067,3.9998,0,22.2,
1527,SBT4050,1,5,3.90995,4.0001,0,22.2,
1527,SBT4050,1,5,3.913374,3.9998,0,22.2,
1527,SBT4050,1,5,3.91655,4.0001,0,22.3,
1527,SBT4050,1,5,3.92021,4.0003,0,22.4,
1527,SBT4050,1,5,3.92304,4.0005,0,22.4,
1527,SBT4050,1,5,3.92707,4,0,22.5,
1527,SBT4050,1,5,3.93015,4.0003,0,22.5,
1527,SBT4050,1,5,3.93377,3.9996,0,22.4,
1527,SBT4050,1,5,3.937074,4,0,22.4,
1527,SBT4050,1,5,3.94073,4.0003,0,22.4,
1527,SBT4050,1,5,3.94444,3.9999,0,22.4,
1527,SBT4050,1,5,3.94789,4.0005,0,22.4,
1527,SBT4050,1,5,3.95132,4.0003,0,22.4,
1527,SBT4050,1,5,3.95507,4.0005,0,22.4,
1527,SBT4050,1,5,3.95838,4.0002,0,22.5,
1527,SBT4050,1,5,3.96222,4,0,22.4,
1527,SBT4050,1,5,3.9656,4,0,22.5,
1527,SBT4050,1,5,3.96949,4.0004,0,22.5,
1527,SBT4050,1,5,3.97295,4.0004,0,22.5,
1527,SBT4050,1,5,3.97646,3.9999,0,22.5,
1527,SBT4050,1,5,3.97996,3.9998,0,22.6,
1527,SBT4050,1,5,3.98369,3.9992,0,22.5,
1527,SBT4050,1,5,3.987068,4.0007,0,22.5,
1527,SBT4050,1,5,3.99047,3.9999,0,22.6,
1527,SBT4050,1,5,3.99413,4.0002,0,22.6,
1527,SBT4050,1,5,3.99757,4.0001,0,22.5,
1527,SBT4050,1,5,4.00145,4.0002,0,22.7,
1527,SBT4050,1,5,4.004854,4.0001,0,22.7,
1527,SBT4050,1,5,4.008522,3.9995,0,22.6,
1527,SBT4050,1,5,4.012074,3.9999,0,22.6,
1527,SBT4050,1,5,4.01577,3.9996,0,22.6,
1527,SBT4050,1,5,4.01939,4.0001,0,22.7,
1527,SBT4050,1,5,4.02285,4.0001,0,22.6,
1527,SBT4050,1,5,4.02616,3.9995,0,22.6,
1527,SBT4050,1,5,4.02999,3.9998,0,22.6,
1527,SBT4050,1,5,4.03361,4.0001,0,22.7,
1527,SBT4050,1,5,4.037086,4.0007,0,22.8,
1527,SBT4050,1,5,4.04055,4.0001,0,22.7,
1527,SBT4050,1,5,4.04412,3.9999,0,22.8,
1527,SBT4050,1,5,4.04749,3.9995,0,22.7,
1527,SBT4050,1,5,4.05118,3.9998,0,22.6,
1527,SBT4050,1,5,4.0546,4.0002,0,22.6,
1527,SBT4050,1,5,4.05801,3.9994,0,22.7,
1527,SBT4050,1,5,4.061618,3.9993,0,22.7,
1527,SBT4050,1,5,4.0656,3.9999,0,22.6,
1527,SBT4050,1,5,4.06866,4.0001,0,22.7,
1527,SBT4050,1,5,4.0722,4,0,22.8,
1527,SBT4050,1,5,4.07576,4,0,22.7,
1527,SBT4050,1,5,4.07984,4.0001,0,22.7,
1527,SBT4050,1,5,4.083524,3.9998,0,22.8,
1527,SBT4050,1,5,4.086972,3.9997,0,22.7,
1527,SBT4050,1,5,4.09071,4.0003,0,22.7,
1527,SBT4050,1,5,4.09467,4.0003,0,22.7,
1527,SBT4050,1,5,4.09815,3.9994,0,22.8,
1527,SBT4050,1,5,4.102006,4.0002,0,22.8,
1527,SBT4050,1,5,4.10523,4.0002,0,22.7,
1527,SBT4050,1,5,4.10899,4,0,22.8,
1527,SBT4050,1,5,4.11386,4.0002,0,22.8,
1527,SBT4050,1,5,4.11775,4,0,22.8,
1527,SBT4050,1,5,4.122194,3.9997,0,22.8,
1527,SBT4050,1,5,4.126214,3.9998,0,22.8,
1527,SBT4050,1,5,4.1309,3.9997,0,22.8,
1527,SBT4050,1,5,4.13477,4.0002,0,22.8,
1527,SBT4050,1,5,4.13938,4,0,22.9,
1527,SBT4050,1,5,4.14315,3.9997,0,22.9,
1527,SBT4050,1,5,4.14787,4.0002,0,22.9,
1527,SBT4050,1,5,4.15253,4,0,22.9,
1527,SBT4050,1,5,4.15694,3.9996,0,22.9,
1527,SBT4050,1,5,4.16123,4.0002,0,22.8,
1527,SBT4050,1,5,4.16625,4.0003,0,22.9,
1527,SBT4050,1,5,4.17082,3.9999,0,22.8,
1527,SBT4050,1,5,4.175362,3.9997,0,22.8,
1527,SBT4050,1,5,4.1801,3.999,0,22.7,
1527,SBT4050,1,5,4.18471,3.9996,0,22.8,
1527,SBT4050,1,5,4.18934,3.9997,0,22.8,
1527,SBT4050,1,5,4.19439,4,0,22.9,
1527,SBT4050,1,5,4.19917,4.0002,0,22.9,
1527,SBT4050,1,5,4.19987,3.8844,0,22.9,
1527,SBT4050,1,5,4.20014,3.7453,0,22.9,
1527,SBT4050,1,5,4.20027,3.6326,0,22.8,
1527,SBT4050,1,5,4.200096,3.5304,0,22.9,
1527,SBT4050,1,5,4.20002,3.4341,0,22.8,
1527,SBT4050,1,5,4.20022,3.3483,0,22.9,
1527,SBT4050,1,5,4.20017,3.2641,0,22.8,
1527,SBT4050,1,5,4.20013,3.1816,0,22.9,
1527,SBT4050,1,5,4.20013,3.1034,0,22.8,
1527,SBT4050,1,5,4.200108,3.0268,0,22.8,
1527,SBT4050,1,5,4.20006,2.9549,0,22.8,
1527,SBT4050,1,5,4.2003,2.8889,0,22.7,
1527,SBT4050,1,5,4.20019,2.8282,0,22.7,
1527,SBT4050,1,5,4.19987,2.7617,0,22.7,
1527,SBT4050,1,5,4.20012,2.7036,0,22.7,
1527,SBT4050,1,5,4.200072,2.6486,0,22.6,
1527,SBT4050,1,5,4.20027,2.5909,0,22.6,
1527,SBT4050,1,5,4.20004,2.5404,0,22.6,
1527,SBT4050,1,5,4.20001,2.4909,0,22.7,
1527,SBT4050,1,5,4.20004,2.442,0,22.6,
1527,SBT4050,1,5,4.20024,2.3955,0,22.6,
1527,SBT4050,1,5,4.20019,2.351,0,22.5,
1527,SBT4050,1,5,4.20001,2.3096,0,22.4,
1527,SBT4050,1,5,4.19994,2.2697,0,22.4,
1527,SBT4050,1,5,4.20006,2.228,0,22.4,
1527,SBT4050,1,5,4.20017,2.1852,0,22.4,
1527,SBT4050,1,5,4.20032,2.1496,0,22.3,
1527,SBT4050,1,5,4.20031,2.1119,0,22.2,
1527,SBT4050,1,5,4.20036,2.073,0,22.3,
1527,SBT4050,1,5,4.20016,2.0407,0,22.2,
1527,SBT4050,1,5,4.20006,2.0089,0,22.2,
1527,SBT4050,1,5,4.19992,1.9735,0,22.3,
1527,SBT4050,1,5,4.20027,1.9413,0,22.2,
1527,SBT4050,1,5,4.20014,1.9066,0,22.1,
1527,SBT4050,1,5,4.200096,1.8748,0,22.1,
1527,SBT4050,1,5,4.20017,1.8448,0,22.1,
1527,SBT4050,1,5,4.200108,1.816,0,22,
1527,SBT4050,1,5,4.200382,1.7826,0,22,
1527,SBT4050,1,5,4.20017,1.7547,0,22,
1527,SBT4050,1,5,4.20017,1.7261,0,22,
1527,SBT4050,1,5,4.200084,1.6978,0,21.9,
1527,SBT4050,1,5,4.20016,1.6709,0,21.9,
1527,SBT4050,1,5,4.20005,1.6436,0,21.9,
1527,SBT4050,1,5,4.2002,1.6182,0,21.9,
1527,SBT4050,1,5,4.20016,1.5927,0,21.8,
1527,SBT4050,1,5,4.20002,1.5655,0,21.9,
1527,SBT4050,1,5,4.20014,1.5412,0,21.8,
1527,SBT4050,1,5,4.19989,1.5149,0,21.8,
1527,SBT4050,1,5,4.19996,1.4942,0,21.8,
1527,SBT4050,1,5,4.200072,1.4669,0,21.8,
1527,SBT4050,1,5,4.20013,1.4433,0,21.7,
1527,SBT4050,1,5,4.20022,1.4194,0,21.7,
1527,SBT4050,1,5,4.19999,1.3991,0,21.7,
1527,SBT4050,1,5,4.20014,1.375,0,21.7,
1527,SBT4050,1,5,4.2003,1.3552,0,21.7,
1527,SBT4050,1,5,4.200096,1.3314,0,21.7,
1527,SBT4050,1,5,4.19999,1.3107,0,21.6,
1527,SBT4050,1,5,4.20017,1.292,0,21.6,
1527,SBT4050,1,5,4.20017,1.2714,0,21.6,
1527,SBT4050,1,5,4.200108,1.2499,0,21.5,
1527,SBT4050,1,5,4.20026,1.2315,0,21.5,
1527,SBT4050,1,5,4.20002,1.2127,0,21.5,
1527,SBT4050,1,5,4.20016,1.1911,0,21.5,
1527,SBT4050,1,5,4.19999,1.1744,0,21.5,
1527,SBT4050,1,5,4.19996,1.157,0,21.5,
1527,SBT4050,1,5,4.20016,1.1371,0,21.4,
1527,SBT4050,1,5,4.20027,1.1203,0,21.5,
1527,SBT4050,1,5,4.20006,1.102,0,21.4,
1527,SBT4050,1,5,4.200108,1.0858,0,21.5,
1527,SBT4050,1,5,4.20001,1.0689,0,21.4,
1527,SBT4050,1,5,4.19998,1.0519,0,21.4,
1527,SBT4050,1,5,4.200072,1.0354,0,21.3,
1527,SBT4050,1,5,4.200072,1.0203,0,21.4,
1527,SBT4050,1,5,4.19996,1.0044,0,21.3,
1527,SBT4050,1,5,4.20022,0.9891,0,21.3,
1527,SBT4050,1,5,4.19999,0.975,0,21.3,
1527,SBT4050,1,5,4.20017,0.9582,0,21.3,
1527,SBT4050,1,5,4.20001,0.9423,0,21.3,
1527,SBT4050,1,5,4.20019,0.9287,0,21.3,
1527,SBT4050,1,5,4.19989,0.9146,0,21.3,
1527,SBT4050,1,5,4.20002,0.9008,0,21.2,
1527,SBT4050,1,5,4.20013,0.8878,0,21.2,
1527,SBT4050,1,5,4.20012,0.8749,0,21.2,
1527,SBT4050,1,5,4.20012,0.8608,0,21.2,
1527,SBT4050,1,5,4.200084,0.8463,0,21.2,
1527,SBT4050,1,5,4.20014,0.8366,0,21.2,
1527,SBT4050,1,5,4.2,0.8224,0,21.2,
1527,SBT4050,1,5,4.20001,0.81,0,21.2,
1527,SBT4050,1,5,4.19987,0.7998,0,21.1,
1527,SBT4050,1,5,4.20026,0.7874,0,21.1,
1527,SBT4050,1,5,4.20013,0.7753,0,21.1,
1527,SBT4050,1,5,4.20025,0.7639,0,21.1,
1527,SBT4050,1,5,4.20014,0.7535,0,21.1,
1527,SBT4050,1,5,4.19994,0.7426,0,21.1,
1527,SBT4050,1,5,4.19998,0.7308,0,21.1,
1527,SBT4050,1,5,4.200084,0.7214,0,21,
1527,SBT4050,1,5,4.19996,0.7125,0,21.1,
1527,SBT4050,1,5,4.20019,0.6996,0,21,
1527,SBT4050,1,5,4.200072,0.6902,0,21,
1527,SBT4050,1,5,4.20018,0.6802,0,21,
1527,SBT4050,1,5,4.2,0.6717,0,21,
1527,SBT4050,1,5,4.20018,0.6636,0,21,
1527,SBT4050,1,5,4.20019,0.6516,0,21,
1527,SBT4050,1,5,4.19998,0.6418,0,21,
1527,SBT4050,1,5,4.19993,0.6337,0,21,
1527,SBT4050,1,5,4.20006,0.626,0,21,
1527,SBT4050,1,5,4.20004,0.6156,0,21,
1527,SBT4050,1,5,4.20024,0.6072,0,21,
1527,SBT4050,1,5,4.20024,0.5988,0,20.9,
1527,SBT4050,1,5,4.19967,0.5886,0,20.9,
1527,SBT4050,1,5,4.20018,0.583,0,20.9,
1527,SBT4050,1,5,4.20004,0.5771,0,20.9,
1527,SBT4050,1,5,4.20019,0.5682,0,20.9,
1527,SBT4050,1,5,4.20022,0.5601,0,20.9,
1527,SBT4050,1,5,4.20006,0.5544,0,20.9,
1527,SBT4050,1,5,4.20017,0.5452,0,20.9,
1527,SBT4050,1,5,4.20026,0.538,0,20.9,
1527,SBT4050,1,5,4.20014,0.529,0,20.9,
1527,SBT4050,1,5,4.200096,0.5209,0,20.9,
1527,SBT4050,1,5,4.19998,0.5178,0,20.9,
1527,SBT4050,1,5,4.2003,0.5091,0,20.9,
1527,SBT4050,1,5,4.19992,0.5028,0,20.9,
1527,SBT4050,1,5,4.20018,0.4972,0,20.8,
1527,SBT4050,1,5,4.20032,0.4907,0,20.9,
1527,SBT4050,1,5,4.200096,0.4855,0,20.8,
1527,SBT4050,1,5,4.19999,0.4782,0,20.8,
1527,SBT4050,1,5,4.20016,0.47221,0,20.9,
1527,SBT4050,1,5,4.200084,0.46705,0,20.8,
1527,SBT4050,1,5,4.20023,0.46259,0,20.8,
1527,SBT4050,1,5,4.200096,0.45646,0,20.8,
1527,SBT4050,1,5,4.19992,0.45283,0,20.8,
1527,SBT4050,1,5,4.20014,0.44472,0,20.8,
1527,SBT4050,1,5,4.19986,0.44124,0,20.8,
1527,SBT4050,1,5,4.2002,0.43118,0,20.8,
1527,SBT4050,1,5,4.200096,0.42633,0,20.8,
1527,SBT4050,1,5,4.20013,0.42135,0,20.8,
1527,SBT4050,1,5,4.20018,0.41451,0,20.8,
1527,SBT4050,1,5,4.19994,0.41092,0,20.8,
1527,SBT4050,1,5,4.20002,0.4103,0,20.8,
1527,SBT4050,1,5,4.20001,0.40094,0,20.8,
1527,SBT4050,1,5,4.20016,0.39347,0,20.8,
1527,SBT4050,1,5,4.200072,0.38995,0,20.8,
1527,SBT4050,1,5,4.200084,0.38664,0,20.8,
1527,SBT4050,1,5,4.20022,0.38161,0,20.8,
1527,SBT4050,1,5,4.200072,0.37655,0,20.8,
1527,SBT4050,1,5,4.2,0.37219,0,20.8,
1527,SBT4050,1,5,4.199786,0.36917,0,20.7,
1527,SBT4050,1,5,4.20019,0.36401,0,20.8,
1527,SBT4050,1,5,4.19986,0.36048,0,20.8,
1527,SBT4050,1,5,4.19993,0.35769,0,20.8,
1527,SBT4050,1,5,4.2002,0.35488,0,20.8,
1527,SBT4050,1,5,4.200096,0.35271,0,20.7,
1527,SBT4050,1,5,4.20019,0.34744,0,20.8,
1527,SBT4050,1,5,4.20016,0.34023,0,20.7,
1527,SBT4050,1,5,4.200108,0.33384,0,20.8,
1527,SBT4050,1,5,4.19999,0.33008,0,20.7,
1527,SBT4050,1,5,4.20017,0.32661,0,20.7,
1527,SBT4050,1,5,4.200084,0.32357,0,20.7,
1527,SBT4050,1,5,4.20002,0.32131,0,20.7,
1527,SBT4050,1,5,4.20018,0.32122,0,20.7,
1527,SBT4050,1,5,4.20019,0.31866,0,20.7,
1527,SBT4050,1,5,4.200108,0.31148,0,20.7,
1527,SBT4050,1,5,4.2003,0.31095,0,20.7,
1527,SBT4050,1,5,4.20031,0.30744,0,20.7,
1527,SBT4050,1,5,4.200108,0.30153,0,20.7,
1527,SBT4050,1,5,4.200084,0.30026,0,20.7,
1527,SBT4050,1,5,4.20053,0.29335,0,20.7,
1527,SBT4050,1,5,4.20029,0.28834,0,20.7,
1527,SBT4050,1,5,4.200072,0.28448,0,20.7,
1527,SBT4050,1,5,4.200108,0.2841,0,20.7,
1527,SBT4050,1,5,4.20016,0.28337,0,20.7,
1527,SBT4050,1,5,4.20025,0.27998,0,20.7,
1527,SBT4050,1,5,4.20033,0.27725,0,20.7,
1527,SBT4050,1,5,4.200084,0.27147,0,20.7,
1527,SBT4050,1,5,4.19991,0.26767,0,20.7,
1527,SBT4050,1,5,4.20005,0.26615,0,20.7,
1527,SBT4050,1,5,4.20002,0.26639,0,20.7,
1527,SBT4050,1,5,4.20031,0.26305,0,20.6,
1527,SBT4050,1,5,4.20019,0.25858,0,20.7,
1527,SBT4050,1,5,4.20006,0.25688,0,20.7,
1527,SBT4050,1,5,4.19996,0.25291,0,20.7,
1527,SBT4050,1,5,4.20032,0.25022,0,20.7,
1527,SBT4050,1,5,4.200084,0.25025,0,20.6,
1527,SBT4050,1,5,4.19973,0.24993,0,20.6,
1527,SBT4050,1,5,4.20029,0.24634,0,20.7,
1527,SBT4050,1,5,4.20016,0.24431,0,20.7,
1527,SBT4050,1,5,4.19974,0.24152,0,20.6,
1527,SBT4050,1,5,4.200096,0.23937,0,20.7,
1527,SBT4050,1,5,4.19996,0.23674,0,20.6,
1527,SBT4050,1,5,4.20024,0.2308,0,20.7,
1527,SBT4050,1,5,4.20032,0.22966,0,20.6,
1527,SBT4050,1,5,4.19994,0.22671,0,20.6,
1527,SBT4050,1,5,4.19974,0.22559,0,20.6,
1527,SBT4050,1,5,4.20006,0.22442,0,20.6,
1527,SBT4050,1,5,4.19995,0.22235,0,20.6,
1527,SBT4050,1,5,4.19975,0.22073,0,20.6,
1527,SBT4050,1,5,4.20002,0.21958,0,20.7,
1527,SBT4050,1,5,4.19968,0.21614,0,20.7,
1527,SBT4050,1,5,4.20001,0.21512,0,20.6,
1527,SBT4050,1,5,4.20023,0.21241,0,20.6,
1527,SBT4050,1,5,4.20006,0.21038,0,20.6,
1527,SBT4050,1,5,4.20014,0.20743,0,20.6,
1527,SBT4050,1,5,4.20016,0.20657,0,20.6,
1527,SBT4050,1,5,4.200084,0.19978,0,20.6,
1527,SBT4050,1,5,4.19992,0.20071,0,20.6,
1527,SBT4050,1,5,4.200096,0.1969,0,20.6,
1527,SBT4050,1,5,4.20033,0.19531,0,20.6,
1527,SBT4050,1,5,4.20014,0.19283,0,20.6,
1527,SBT4050,1,5,4.20063,0.18997,0,20.6,
1527,SBT4050,1,5,4.200084,0.19053,0,20.6,
1527,SBT4050,1,5,4.200382,0.19195,0,20.6,
1527,SBT4050,1,5,4.2,0.19144,0,20.6,
1527,SBT4050,1,5,4.20026,0.1876,0,20.6,
1527,SBT4050,1,5,4.20032,0.18479,0,20.6,
1527,SBT4050,1,5,4.20053,0.18194,0,20.6,
1527,SBT4050,1,5,4.19992,0.18093,0,20.6,
1527,SBT4050,1,5,4.19996,0.18241,0,20.6,
1527,SBT4050,1,5,4.2,0.18262,0,20.6,
1527,SBT4050,1,5,4.20022,0.182,0,20.6,
1527,SBT4050,1,5,4.20044,0.17962,0,20.6,
1527,SBT4050,1,5,4.200406,0.1755,0,20.6,
1527,SBT4050,1,5,4.20024,0.17135,0,20.6,
1527,SBT4050,1,5,4.20032,0.16764,0,20.6,
1527,SBT4050,1,5,4.19985,0.16608,0,20.6,
1527,SBT4050,1,5,4.200072,0.16437,0,20.6,
1527,SBT4050,1,5,4.19971,0.16555,0,20.6,
1527,SBT4050,1,5,4.20002,0.16533,0,20.6,
1527,SBT4050,1,5,4.200108,0.16413,0,20.6,
1527,SBT4050,1,5,4.20057,0.15919,0,20.6,
1527,SBT4050,1,5,4.200418,0.15624,0,20.6,
1527,SBT4050,1,5,4.20018,0.15159,0,20.6,
1527,SBT4050,1,5,4.19994,0.15239,0,20.6,
1527,SBT4050,1,5,4.19989,0.15312,0,20.6,
1527,SBT4050,1,5,4.200406,0.15121,0,20.6,
1527,SBT4050,1,5,4.19933,0.15141,0,20.6,
1527,SBT4050,1,5,4.19999,0.15135,0,20.6,
1527,SBT4050,1,5,4.19973,0.15103,0,20.6,
1527,SBT4050,1,5,4.20044,0.1503,0,20.6,
1527,SBT4050,1,5,4.20047,0.14891,0,20.6,
1527,SBT4050,1,5,4.19985,0.14771,0,20.6,
1527,SBT4050,1,5,4.20033,0.14733,0,20.5,
1527,SBT4050,1,5,4.20024,0.14598,0,20.5,
1527,SBT4050,1,5,4.200096,0.1423,0,20.6,
1527,SBT4050,1,5,4.20062,0.13876,0,20.6,
1527,SBT4050,1,5,4.20029,0.13832,0,20.6,
1527,SBT4050,1,5,4.19908,0.13893,0,20.5,
1527,SBT4050,1,5,4.200084,0.13817,0,20.5,
1527,SBT4050,1,5,4.19994,0.13677,0,20.6,
1527,SBT4050,1,5,4.1994,0.1389,0,20.5,
1527,SBT4050,1,5,4.200704,0.13749,0,20.5,
1527,SBT4050,1,5,4.200418,0.1347,0,20.6,
1527,SBT4050,1,5,4.20051,0.13067,0,20.6,
1527,SBT4050,1,5,4.1995,0.13185,0,20.6,
1527,SBT4050,1,5,4.20044,0.13275,0,20.6,
1527,SBT4050,1,5,4.1997,0.12826,0,20.6,
1527,SBT4050,1,5,4.19993,0.12528,0,20.6,
1527,SBT4050,1,5,4.20022,0.12938,0,20.6,
1527,SBT4050,1,5,4.20024,0.13122,0,20.6,
1527,SBT4050,1,5,4.20048,0.12864,0,20.6,
1527,SBT4050,1,5,4.200108,0.12804,0,20.6,
1527,SBT4050,1,5,4.19931,0.12749,0,20.6,
1527,SBT4050,1,5,4.2006,0.12519,0,20.5,
1527,SBT4050,1,5,4.19999,0.12445,0,20.5,
1527,SBT4050,1,5,4.20018,0.12366,0,20.5,
1527,SBT4050,1,5,4.20061,0.12043,0,20.5,
1527,SBT4050,1,5,4.20058,0.11516,0,20.5,
1527,SBT4050,1,5,4.19991,0.11598,0,20.5,
1527,SBT4050,1,5,4.20006,0.11693,0,20.5,
1527,SBT4050,1,5,4.19968,0.11506,0,20.6,
1527,SBT4050,1,5,4.19963,0.11512,0,20.6,
1527,SBT4050,1,5,4.20044,0.11197,0,20.6,
1527,SBT4050,1,5,4.20002,0.11248,0,20.6,
1527,SBT4050,1,5,4.20044,0.11395,0,20.5,
1527,SBT4050,1,5,4.199774,0.11237,0,20.6,
1527,SBT4050,1,5,4.19994,0.11274,0,20.6,
1527,SBT4050,1,5,4.19982,0.11366,0,20.5,
1527,SBT4050,1,5,4.2,0.11372,0,20.6,
1527,SBT4050,1,5,4.20023,0.11081,0,20.6,
1527,SBT4050,1,5,4.19913,0.11186,0,20.6,
1527,SBT4050,1,5,4.20036,0.1106,0,20.5,
1527,SBT4050,1,5,4.199142,0.11139,0,20.5,
1527,SBT4050,1,5,4.19925,0.11225,0,20.6,
1527,SBT4050,1,5,4.200692,0.11212,0,20.5,
1527,SBT4050,1,5,4.19933,0.11274,0,20.6,
1527,SBT4050,1,5,4.199798,0.1116,0,20.6,
1527,SBT4050,1,5,4.19987,0.10812,0,20.6,
1527,SBT4050,1,5,4.20088,0.10301,0,20.6,
1527,SBT4050,1,5,4.19721,0,0,20.5,
1527,SBT4050,1,5,4.19587,0,0,20.6,
1527,SBT4050,1,5,4.19508,0,0,20.6,
1527,SBT4050,1,5,4.19475,0,0,20.5,
1527,SBT4050,1,5,4.19416,0,0,20.6,
1527,SBT4050,1,5,4.19394,0,0,20.5,
1527,SBT4050,1,5,4.19342,0,0,20.5,
1527,SBT4050,1,5,4.1924,0,0,20.5,
1527,SBT4050,1,5,4.19288,0,0,20.5,
1527,SBT4050,1,5,4.19209,0,0,20.6,
1527,SBT4050,1,5,4.191962,0,0,20.5,
1527,SBT4050,1,5,4.1918,0,0,20.6,
1527,SBT4050,1,5,4.19138,0,0,20.5,
1527,SBT4050,1,5,4.19123,0,0,20.6,
1527,SBT4050,1,5,4.191088,0,0,20.5,
1527,SBT4050,1,5,4.19087,0,0,20.5,
1527,SBT4050,1,5,4.19037,0,0,20.5,
1527,SBT4050,1,5,4.19035,0,0,20.6,
1527,SBT4050,1,5,4.19047,0,0,20.6,
1527,SBT4050,1,5,4.18964,0,0,20.5,
1527,SBT4050,1,5,4.18918,0,0,20.6,
1527,SBT4050,1,5,4.18954,0,0,20.6,
1527,SBT4050,1,5,4.18881,0,0,20.6,
1527,SBT4050,1,5,4.18871,0,0,20.5,
1527,SBT4050,1,5,4.189036,0,0,20.5,
1527,SBT4050,1,5,4.18825,0,0,20.6,
1527,SBT4050,1,5,4.18804,0,0,20.5,
1527,SBT4050,1,5,4.187848,0,0,20.5,
1527,SBT4050,1,5,4.18803,0,0,20.6,
1527,SBT4050,1,5,4.18746,0,0,20.5,
1527,SBT4050,1,5,4.18705,0,0,20.6,
1527,SBT4050,1,5,4.18742,0,0,20.5,
1527,SBT4050,1,5,4.18725,0,0,20.6,
1527,SBT4050,1,5,4.186894,0,0,20.5,
1527,SBT4050,1,5,4.18652,0,0,20.5,
1527,SBT4050,1,5,4.18665,0,0,20.5,
1527,SBT4050,1,5,4.18616,0,0,20.5,
1527,SBT4050,1,5,4.18669,0,0,20.5,
1527,SBT4050,1,5,4.18563,0,0,20.5,
1527,SBT4050,1,5,4.18582,0,0,20.5,
1527,SBT4050,1,5,4.185604,0,0,20.5,
1527,SBT4050,1,5,4.18558,0,0,20.5,
1527,SBT4050,1,5,4.18523,0,0,20.5,
1527,SBT4050,1,5,4.184984,0,0,20.5,
1527,SBT4050,1,5,4.184794,0,0,20.5,
1527,SBT4050,1,5,4.18482,0,0,20.5,
1527,SBT4050,1,5,4.18458,0,0,20.5,
1527,SBT4050,1,5,4.18467,0,0,20.5,
1527,SBT4050,1,5,4.18448,0,0,20.5,
1527,SBT4050,1,5,4.18417,0,0,20.5,
1527,SBT4050,1,5,4.18408,0,0,20.5,
1527,SBT4050,1,5,4.18403,0,0,20.5,
1527,SBT4050,1,5,4.18404,0,0,20.5,
1527,SBT4050,1,5,4.18357,0,0,20.5,
1527,SBT4050,1,5,4.18365,0,0,20.5,
1527,SBT4050,1,5,4.18345,0,0,20.5,
1527,SBT4050,1,5,4.1834,0,0,20.5,
1527,SBT4050,1,5,4.1829,0,0,20.5,
1527,SBT4050,1,5,4.18311,0,0,20.5,
1527,SBT4050,1,5,4.18292,0,0,20.5,
1527,SBT4050,1,5,4.18288,0,0,20.5,
1527,SBT4050,1,5,4.182752,0,0,20.5,
1527,SBT4050,1,5,4.18243,0,0,20.5,
1527,SBT4050,1,5,4.18231,0,0,20.5,
1527,SBT4050,1,5,4.182154,0,0,20.5,
1527,SBT4050,1,5,4.18207,0,0,20.5,
1527,SBT4050,1,5,4.181726,0,0,20.5,
1527,SBT4050,1,5,4.18183,0,0,20.5,
1527,SBT4050,1,5,4.18154,0,0,20.5,
1527,SBT4050,1,5,4.18148,0,0,20.5,
1527,SBT4050,1,5,4.18155,0,0,20.5,
1527,SBT4050,1,5,4.18102,0,0,20.5,
1527,SBT4050,1,5,4.18116,0,0,20.5,
1527,SBT4050,1,5,4.18114,0,0,20.5,
1527,SBT4050,1,5,4.18106,0,0,20.5,
1527,SBT4050,1,5,4.180704,0,0,20.5,
1527,SBT4050,1,5,4.18071,0,0,20.5,
1527,SBT4050,1,5,4.18062,0,0,20.5,
1527,SBT4050,1,5,4.18031,0,0,20.5,
1527,SBT4050,1,5,4.18048,0,0,20.5,
1527,SBT4050,1,5,4.18023,0,0,20.5,
1527,SBT4050,1,5,4.180094,0,0,20.5,
1527,SBT4050,1,5,4.18002,0,0,20.5,
1527,SBT4050,1,5,4.17986,0,0,20.5,
1527,SBT4050,1,5,4.17966,0,0,20.5,
1527,SBT4050,1,5,4.17961,0,0,20.5,
1527,SBT4050,1,5,4.17984,0,0,20.6,
1527,SBT4050,1,5,4.17938,0,0,20.5,
1527,SBT4050,1,5,4.17919,0,0,20.5,
1527,SBT4050,1,5,4.17903,0,0,20.5,
1527,SBT4050,1,5,4.178848,0,0,20.5,
1527,SBT4050,1,5,4.1789,0,0,20.5,
1527,SBT4050,1,5,4.17888,0,0,20.5,
1527,SBT4050,1,5,4.178796,0,0,20.5,
1527,SBT4050,1,5,4.17866,0,0,20.5,
1527,SBT4050,1,5,4.17863,0,0,20.5,
1527,SBT4050,1,5,4.178506,0,0,20.5,
1527,SBT4050,1,5,4.17836,0,0,20.5,
1527,SBT4050,1,5,4.17826,0,0,20.5,
1527,SBT4050,1,5,4.17809,0,0,20.5,
1527,SBT4050,1,5,4.178,0,0,20.5,
1527,SBT4050,1,5,4.17797,0,0,20.5,
1527,SBT4050,1,5,4.17774,0,0,20.5,
1527,SBT4050,1,5,4.17768,0,0,20.6,
1527,SBT4050,1,5,4.17758,0,0,20.5,
1527,SBT4050,1,5,4.17755,0,0,20.5,
1527,SBT4050,1,5,4.17771,0,0,20.5,
1527,SBT4050,1,5,4.17784,0,0,20.5,
1527,SBT4050,1,5,4.17768,0,0,20.5,
1527,SBT4050,1,5,4.1773,0,0,20.5,
1527,SBT4050,1,5,4.17718,0,0,20.5,
1527,SBT4050,1,5,4.177376,0,0,20.6,
1527,SBT4050,1,5,4.177018,0,0,20.5,
1527,SBT4050,1,5,4.17696,0,0,20.6,
1527,SBT4050,1,5,4.17681,0,0,20.5,
1527,SBT4050,1,5,4.17682,0,0,20.5,
1527,SBT4050,1,5,4.17681,0,0,20.5,
1527,SBT4050,1,5,4.177,0,0,20.5,
1527,SBT4050,1,5,4.176742,0,0,20.5,
1527,SBT4050,1,5,4.17637,0,0,20.6,
1527,SBT4050,1,5,4.176514,0,0,20.5,
1527,SBT4050,1,5,4.17638,0,0,20.5,
1527,SBT4050,1,5,4.17605,0,0,20.5,
1527,SBT4050,1,5,4.17602,0,0,20.6,
1527,SBT4050,1,5,4.17585,0,0,20.5,
1527,SBT4050,1,5,4.1759,0,0,20.5,
1527,SBT4050,1,5,4.17588,0,0,20.6,
1527,SBT4050,1,5,4.17586,0,0,20.5,
1527,SBT4050,1,5,4.17576,0,0,20.5,
1527,SBT4050,1,5,4.17584,0,0,20.6,
1527,SBT4050,1,5,4.17565,0,0,20.5,
1527,SBT4050,1,5,4.1756,0,0,20.6,
1527,SBT4050,1,5,4.17561,0,0,20.5,
1527,SBT4050,1,5,4.175626,0,0,20.6,
1527,SBT4050,1,5,4.17527,0,0,20.6,
1527,SBT4050,1,5,4.17538,0,0,20.5,
1527,SBT4050,1,5,4.1753,0,0,20.5,
1527,SBT4050,1,5,4.17514,0,0,20.5,
1527,SBT4050,1,5,4.17488,0,0,20.5,
1527,SBT4050,1,5,4.17493,0,0,20.6,
1527,SBT4050,1,5,4.17494,0,0,20.5,
1527,SBT4050,1,5,4.17481,0,0,20.6,
1527,SBT4050,1,5,4.17465,0,0,20.5,
1527,SBT4050,1,5,4.17423,0,0,20.5,
1527,SBT4050,1,5,4.17438,0,0,20.6,
1527,SBT4050,1,5,4.174456,0,0,20.6,
1527,SBT4050,1,5,4.17421,0,0,20.5,
1527,SBT4050,1,5,4.17404,0,0,20.6,
1527,SBT4050,1,5,4.17401,0,0,20.5,
1527,SBT4050,1,5,4.1739,0,0,20.5,
1527,SBT4050,1,5,4.1742,0,0,20.6,
1527,SBT4050,1,5,4.17407,0,0,20.5,
1527,SBT4050,1,5,4.17382,0,0,20.5,
1527,SBT4050,1,5,4.17414,0,0,20.5,
1527,SBT4050,1,5,4.174,0,0,20.5,
1527,SBT4050,1,5,4.17381,0,0,20.6,
1527,SBT4050,1,5,4.17382,0,0,20.6,
1527,SBT4050,1,5,4.17381,0,0,20.5,
1527,SBT4050,1,5,4.173586,0,0,20.5,
1527,SBT4050,1,5,4.1737,0,0,20.6,
1527,SBT4050,1,5,4.17359,0,0,20.5,
1527,SBT4050,1,5,4.17352,0,0,20.5,
1527,SBT4050,1,5,4.17319,0,0,20.6,
1527,SBT4050,1,5,4.173292,0,0,20.5,
1527,SBT4050,1,5,4.173204,0,0,20.5,
1527,SBT4050,1,5,4.17319,0,0,20.5,
1527,SBT4050,1,5,4.173186,0,0,20.5,
1527,SBT4050,1,5,4.173,0,0,20.5,
1527,SBT4050,1,5,4.17294,0,0,20.5,
1527,SBT4050,1,5,4.17297,0,0,20.6,
1527,SBT4050,1,5,4.17304,0,0,20.6,
1527,SBT4050,1,5,4.17283,0,0,20.5,
1527,SBT4050,1,5,4.17265,0,0,20.6,
1527,SBT4050,1,5,4.17296,0,0,20.6,
1527,SBT4050,1,5,4.17267,0,0,20.6,
1527,SBT4050,1,5,4.172504,0,0,20.6,
1527,SBT4050,1,5,4.17245,0,0,20.6,
1527,SBT4050,1,5,4.17215,0,0,20.6,
1527,SBT4050,1,5,4.17234,0,0,20.6,
1527,SBT4050,1,5,4.17219,0,0,20.6,
1527,SBT4050,1,5,4.17227,0,0,20.5,
1527,SBT4050,1,5,4.17222,0,0,20.5,
1527,SBT4050,1,5,4.17221,0,0,20.5,
1527,SBT4050,1,5,4.17192,0,0,20.5,
1527,SBT4050,1,5,4.17184,0,0,20.6,
1527,SBT4050,1,5,4.17169,0,0,20.6,
1527,SBT4050,1,5,4.17196,0,0,20.6,
1527,SBT4050,1,5,4.17192,0,0,20.6,
1527,SBT4050,1,5,4.171542,0,0,20.6,
1527,SBT4050,1,5,4.17156,0,0,20.5,
1527,SBT4050,1,5,4.17153,0,0,20.6,
1527,SBT4050,1,5,4.17161,0,0,20.5,
1527,SBT4050,1,5,4.17172,0,0,20.6,
1527,SBT4050,1,5,4.17166,0,0,20.6,
1527,SBT4050,1,5,4.17164,0,0,20.6,
1527,SBT4050,1,5,4.171426,0,0,20.6,
1527,SBT4050,1,5,4.17152,0,0,20.5,
1527,SBT4050,1,5,4.171474,0,0,20.6,
1527,SBT4050,1,5,4.17141,0,0,20.6,
1527,SBT4050,1,5,4.17132,0,0,20.6,
1527,SBT4050,1,5,4.171164,0,0,20.6,
1527,SBT4050,1,5,4.17122,0,0,20.6,
1527,SBT4050,1,5,4.17098,0,0,20.6,
1527,SBT4050,1,5,4.17093,0,0,20.5,
1527,SBT4050,1,5,4.17088,0,0,20.6,
1527,SBT4050,1,5,4.17091,0,0,20.6,
1527,SBT4050,1,5,4.17084,0,0,20.5,
1527,SBT4050,1,5,4.17057,0,0,20.6,
1527,SBT4050,1,5,4.17093,0,0,20.6,
1527,SBT4050,1,5,4.17073,0,0,20.6,
1527,SBT4050,1,5,4.17061,0,0,20.5,
1527,SBT4050,1,5,4.170608,0,0,20.5,
1527,SBT4050,1,5,4.17042,0,0,20.6,
1527,SBT4050,1,5,4.17064,0,0,20.6,
1527,SBT4050,1,5,4.17039,0,0,20.5,
1527,SBT4050,1,5,4.170384,0,0,20.6,
1527,SBT4050,1,5,4.17034,0,0,20.6,
1527,SBT4050,1,5,4.17038,0,0,20.6,
1527,SBT4050,1,5,4.1702,0,0,20.6,
1527,SBT4050,1,5,4.17021,0,0,20.6,
1527,SBT4050,1,5,4.16997,0,0,20.6,
1527,SBT4050,1,5,4.17013,0,0,20.6,
1527,SBT4050,1,5,4.17033,0,0,20.6,
1527,SBT4050,1,5,4.16978,0,0,20.5,
1527,SBT4050,1,5,4.17016,0,0,20.6,
1527,SBT4050,1,5,4.169892,0,0,20.6,
1527,SBT4050,1,5,4.169772,0,0,20.6,
1527,SBT4050,1,5,4.16953,0,0,20.6,
1527,SBT4050,1,5,4.16953,0,0,20.6,
1527,SBT4050,1,5,4.16951,0,0,20.6,
1527,SBT4050,1,5,4.16934,0,0,20.6,
1527,SBT4050,1,5,4.169544,0,0,20.6,
1527,SBT4050,1,5,4.16961,0,0,20.6,
1527,SBT4050,1,5,4.16923,0,0,20.6,
1527,SBT4050,1,5,4.16946,0,0,20.6,
1527,SBT4050,1,5,4.16937,0,0,20.6,
1527,SBT4050,1,5,4.16943,0,0,20.6,
1527,SBT4050,1,5,4.16933,0,0,20.6,
1527,SBT4050,1,5,4.16934,0,0,20.6,
1527,SBT4050,1,5,4.16915,0,0,20.6,
1527,SBT4050,1,5,4.168956,0,0,20.7,
1527,SBT4050,1,5,4.16932,0,0,20.6,
1527,SBT4050,1,5,4.16917,0,0,20.6,
1527,SBT4050,1,5,4.16911,0,0,20.6,
1527,SBT4050,1,5,4.1691,0,0,20.6,
1527,SBT4050,1,5,4.16909,0,0,20.6,
1527,SBT4050,1,5,4.16867,0,0,20.6,
1527,SBT4050,1,5,4.16892,0,0,20.6,
1527,SBT4050,1,5,4.169,0,0,20.6,
1527,SBT4050,1,5,4.16894,0,0,20.6,
1527,SBT4050,1,5,4.1687,0,0,20.6,
1527,SBT4050,1,5,4.16871,0,0,20.6,
1527,SBT4050,1,5,4.16877,0,0,20.6,
1527,SBT4050,1,5,4.16863,0,0,20.6,
1527,SBT4050,1,5,4.16869,0,0,20.6,
1527,SBT4050,1,5,4.1681,0,0,20.6,
1527,SBT4050,1,5,4.16845,0,0,20.6,
1527,SBT4050,1,5,4.16833,0,0,20.6,
1527,SBT4050,1,5,4.16826,0,0,20.6,
1527,SBT4050,1,5,4.16824,0,0,20.6,
1527,SBT4050,1,5,4.16812,0,0,20.6,
1527,SBT4050,1,5,4.16829,0,0,20.6,
1527,SBT4050,1,5,4.16829,0,0,20.6,
1527,SBT4050,1,5,4.16876,0,0,20.6,
1527,SBT4050,1,5,4.16825,0,0,20.6,
1527,SBT4050,1,5,4.16822,0,0,20.6,
1527,SBT4050,1,5,4.16821,0,0,20.6,
1527,SBT4050,1,5,4.16814,0,0,20.6,
1527,SBT4050,1,5,4.16818,0,0,20.6,
1527,SBT4050,1,5,4.16799,0,0,20.6,
1527,SBT4050,1,5,4.16824,0,0,20.6,
1527,SBT4050,1,5,4.16807,0,0,20.6,
1527,SBT4050,1,5,4.16799,0,0,20.6,
1527,SBT4050,1,5,4.16811,0,0,20.6,
1527,SBT4050,1,5,4.16801,0,0,20.6,
1527,SBT4050,1,5,4.16761,0,0,20.6,
1527,SBT4050,1,5,4.1676,0,0,20.6,
1527,SBT4050,1,5,4.16777,0,0,20.6,
1527,SBT4050,1,5,4.16777,0,0,20.6,
1527,SBT4050,1,5,4.16787,0,0,20.6,
1527,SBT4050,1,5,4.16729,0,0,20.6,
1527,SBT4050,1,5,4.167444,0,0,20.6,
1527,SBT4050,1,5,4.16752,0,0,20.6,
1527,SBT4050,1,5,4.16748,0,0,20.6,
1527,SBT4050,1,5,4.167274,0,0,20.6,
1527,SBT4050,1,5,4.16732,0,0,20.6,
1527,SBT4050,1,5,4.16725,0,0,20.6,
1527,SBT4050,1,5,4.16742,0,0,20.6,
1527,SBT4050,1,5,4.167218,0,0,20.6,
1527,SBT4050,1,5,4.16708,0,0,20.6,
1527,SBT4050,1,5,4.16698,0,0,20.6,
1527,SBT4050,1,5,4.16701,0,0,20.6,
1527,SBT4050,1,5,4.16684,0,0,20.7,
1527,SBT4050,1,5,4.166844,0,0,20.6,
1527,SBT4050,1,5,4.16697,0,0,20.6,
1527,SBT4050,1,5,4.167,0,0,20.6,
1527,SBT4050,1,5,4.16693,0,0,20.6,
1527,SBT4050,1,5,4.16683,0,0,20.6,
1527,SBT4050,1,5,4.167,0,0,20.6,
1527,SBT4050,1,5,4.16696,0,0,20.6,
1527,SBT4050,1,5,4.16695,0,0,20.6,
1527,SBT4050,1,5,4.16705,0,0,20.6,
1527,SBT4050,1,5,4.16651,0,0,20.6,
1527,SBT4050,1,5,4.16659,0,0,20.6,
1527,SBT4050,1,5,4.16674,0,0,20.6,
1527,SBT4050,1,5,4.16667,0,0,20.6,
1527,SBT4050,1,5,4.16667,0,0,20.6,
1527,SBT4050,1,5,4.16656,0,0,20.6,
1527,SBT4050,1,5,4.1668,0,0,20.6,
1527,SBT4050,1,5,4.166214,0,0,20.6,
1527,SBT4050,1,5,4.16658,0,0,20.6,
1527,SBT4050,1,5,4.16608,0,0,20.6,
1527,SBT4050,1,5,4.16619,0,0,20.6,
1527,SBT4050,1,5,4.16622,0,0,20.6,
1527,SBT4050,1,5,4.16612,0,0,20.6,
1527,SBT4050,1,5,4.16608,0,0,20.6,
1527,SBT4050,1,5,4.16602,0,0,20.6,
1527,SBT4050,1,5,4.16619,0,0,20.6,
1527,SBT4050,1,5,4.16629,0,0,20.6,
1527,SBT4050,1,5,4.16594,0,0,20.6,
1527,SBT4050,1,5,4.166102,0,0,20.6,
1527,SBT4050,1,5,4.16588,0,0,20.7,
1527,SBT4050,1,5,4.16579,0,0,20.6,
1527,SBT4050,1,5,4.16582,0,0,20.6,
1527,SBT4050,1,5,4.165646,0,0,20.6,
1527,SBT4050,1,5,4.16559,0,0,20.6,
1527,SBT4050,1,5,4.166074,0,0,20.6,
1527,SBT4050,1,5,4.1657,0,0,20.6,
1527,SBT4050,1,5,4.165632,0,0,20.6,
1527,SBT4050,1,5,4.16581,0,0,20.6,
1527,SBT4050,1,5,4.16564,0,0,20.6,
1527,SBT4050,1,5,4.165734,0,0,20.6,
1527,SBT4050,1,5,4.16554,0,0,20.6,
1527,SBT4050,1,5,4.165856,0,0,20.6,
1527,SBT4050,1,5,4.1656,0,0,20.6,
1527,SBT4050,1,5,4.16555,0,0,20.6,
1527,SBT4050,1,5,4.16554,0,0,20.6,
1527,SBT4050,1,5,4.16541,0,0,20.6,
1527,SBT4050,1,5,4.16577,0,0,20.6,
1527,SBT4050,1,5,4.16551,0,0,20.6,
1527,SBT4050,1,5,4.16557,0,0,20.6,
1527,SBT4050,1,5,4.16572,0,0,20.6,
1527,SBT4050,1,5,4.16535,0,0,20.6,
1527,SBT4050,1,5,4.16543,0,0,20.6,
1527,SBT4050,1,5,4.16521,0,0,20.6,
1527,SBT4050,1,5,4.16541,0,0,20.6,
1527,SBT4050,1,5,4.16534,0,0,20.6,
1527,SBT4050,1,5,4.16546,0,0,20.6,
1527,SBT4050,1,5,4.165454,0,0,20.6,
1527,SBT4050,1,5,4.16551,0,0,20.6,
1527,SBT4050,1,5,4.16522,0,0,20.6,
1527,SBT4050,1,5,4.16494,0,0,20.5,
1527,SBT4050,1,5,4.16541,0,0,20.6,
1527,SBT4050,1,5,4.16509,0,0,20.6,
1527,SBT4050,1,5,4.165238,0,0,20.6,
1527,SBT4050,1,5,4.16488,0,0,20.6,
1527,SBT4050,1,5,4.16514,0,0,20.6,
1527,SBT4050,1,5,4.16496,0,0,20.6,
1527,SBT4050,1,5,4.16482,0,0,20.6,
1527,SBT4050,1,5,4.16474,0,0,20.6,
1527,SBT4050,1,5,4.16501,0,0,20.6,
1527,SBT4050,1,5,4.16478,0,0,20.6,
1527,SBT4050,1,5,4.16495,0,0,20.5,
1527,SBT4050,1,5,4.16487,0,0,20.5,
1527,SBT4050,1,5,4.16476,0,0,20.5,
1527,SBT4050,1,5,4.16482,0,0,20.6,
1527,SBT4050,1,5,4.16487,0,0,20.6,
1527,SBT4050,1,5,4.16463,0,0,20.5,
1527,SBT4050,1,5,4.16488,0,0,20.5,
1527,SBT4050,1,5,4.164444,0,0,20.6,
1527,SBT4050,1,5,4.16462,0,0,20.5,
1527,SBT4050,1,5,4.164708,0,0,20.6,
1527,SBT4050,1,5,4.164422,0,0,20.6,
1527,SBT4050,1,5,4.16455,0,0,20.6,
1527,SBT4050,1,5,4.16443,0,0,20.6,
1527,SBT4050,1,5,4.16442,0,0,20.5,
1527,SBT4050,1,5,4.1648,0,0,20.6,
1527,SBT4050,1,5,4.16474,0,0,20.5,
1527,SBT4050,1,5,4.16459,0,0,20.6,
1527,SBT4050,1,5,4.16454,0,0,20.6,
1527,SBT4050,1,5,4.16469,0,0,20.5,
1527,SBT4050,1,5,4.16437,0,0,20.5,
1527,SBT4050,1,5,4.16423,0,0,20.5,
1527,SBT4050,1,5,4.16419,0,0,20.5,
1527,SBT4050,1,5,4.164158,0,0,20.6,
1527,SBT4050,1,5,4.1641,0,0,20.6,
1527,SBT4050,1,5,4.16408,0,0,20.5,
1527,SBT4050,1,5,4.1641,0,0,20.5,
1527,SBT4050,1,5,4.16417,0,0,20.5,
1527,SBT4050,1,5,4.16399,0,0,20.5,
1527,SBT4050,1,5,4.16447,0,0,20.5,
1527,SBT4050,1,5,4.16414,0,0,20.5,
1527,SBT4050,1,5,4.16422,0,0,20.5,
1527,SBT4050,1,5,4.16428,0,0,20.5,
1527,SBT4050,1,5,4.163988,0,0,20.6,
1527,SBT4050,1,5,4.16394,0,0,20.5,
1527,SBT4050,1,5,4.16413,0,0,20.5,
1527,SBT4050,1,5,4.16408,0,0,20.5,
1527,SBT4050,1,5,4.1639,0,0,20.6,
1527,SBT4050,1,5,4.16369,0,0,20.5,
1527,SBT4050,1,5,4.16378,0,0,20.6,
1527,SBT4050,1,5,4.16378,0,0,20.5,
1527,SBT4050,1,5,4.16359,0,0,20.5,
1527,SBT4050,1,5,4.16371,0,0,20.5,
1527,SBT4050,1,5,4.163646,0,0,20.5,
1527,SBT4050,1,5,4.16365,0,0,20.5,
1527,SBT4050,1,5,4.163694,0,0,20.5,
1527,SBT4050,1,5,4.16364,0,0,20.5,
1527,SBT4050,1,5,4.16367,0,0,20.5,
1527,SBT4050,1,5,4.16365,0,0,20.5,
1527,SBT4050,1,5,4.163656,0,0,20.6,
1527,SBT4050,1,5,4.16372,0,0,20.5,
1527,SBT4050,1,5,4.16373,0,0,20.5,
1527,SBT4050,1,5,4.16347,0,0,20.5,
1527,SBT4050,1,5,4.163568,0,0,20.5,
1527,SBT4050,1,5,4.16363,0,0,20.5,
1527,SBT4050,1,5,4.16346,0,0,20.5,
1527,SBT4050,1,5,4.163568,0,0,20.5,
1527,SBT4050,1,5,4.163438,0,0,20.5,
1527,SBT4050,1,5,4.16326,0,0,20.5,
1527,SBT4050,1,5,4.16318,0,0,20.5,
1527,SBT4050,1,5,4.163172,0,0,20.5,
1527,SBT4050,1,5,4.16322,0,0,20.5,
1527,SBT4050,1,5,4.163156,0,0,20.5,
1527,SBT4050,1,5,4.16318,0,0,20.5,
1527,SBT4050,1,5,4.16322,0,0,20.6,
1527,SBT4050,1,5,4.16331,0,0,20.5,
1527,SBT4050,1,5,4.16322,0,0,20.5,
1527,SBT4050,1,5,4.163162,0,0,20.5,
1527,SBT4050,1,5,4.163166,0,0,20.5,
1527,SBT4050,1,5,4.16312,0,0,20.5,
1527,SBT4050,1,5,4.16307,0,0,20.5,
1527,SBT4050,1,5,4.1632,0,0,20.5,
1527,SBT4050,1,5,4.16321,0,0,20.5,
1527,SBT4050,1,5,4.16317,0,0,20.5,
1527,SBT4050,1,5,4.16329,0,0,20.5,
1527,SBT4050,1,5,4.16301,0,0,20.5,
1527,SBT4050,1,5,4.16314,0,0,20.5,
1527,SBT4050,1,5,4.163114,0,0,20.5,
1527,SBT4050,1,5,4.16291,0,0,20.4,
1527,SBT4050,1,5,4.16285,0,0,20.5,
1527,SBT4050,1,5,4.162812,0,0,20.6,
1527,SBT4050,1,5,4.1629,0,0,20.5,
1527,SBT4050,1,5,4.16279,0,0,20.5,
1527,SBT4050,1,5,4.16285,0,0,20.5,
1527,SBT4050,1,5,4.16295,0,0,20.5,
1527,SBT4050,1,5,4.16265,0,0,20.5,
1527,SBT4050,1,5,4.16295,0,0,20.5,
1527,SBT4050,1,5,4.16273,0,0,20.5,
1527,SBT4050,1,5,4.16268,0,0,20.5,
1527,SBT4050,1,5,3.90338,-9.999,4.008,20.5,
1527,SBT4050,1,5,3.836216,-9.999,26.229,20.5,
1527,SBT4050,1,5,3.79811,-9.999,48.45,20.7,
1527,SBT4050,1,5,3.76961,-10.001,70.671,20.9,
1527,SBT4050,1,5,3.74665,-9.999,92.892,21.2,
1527,SBT4050,1,5,3.727566,-10.001,115.113,21.4,
1527,SBT4050,1,5,3.71175,-9.999,137.334,21.7,
1527,SBT4050,1,5,3.698426,-9.999,159.555,22,
1527,SBT4050,1,5,3.686744,-10.002,181.776,22.2,
1527,SBT4050,1,5,3.67664,-9.999,203.996,22.5,
1527,SBT4050,1,5,3.667286,-9.999,226.217,22.7,
1527,SBT4050,1,5,3.6585,-10,248.438,22.9,
1527,SBT4050,1,5,3.65052,-10.002,270.659,23.1,
1527,SBT4050,1,5,3.6423,-10,292.88,23.3,
1527,SBT4050,1,5,3.63476,-10,315.1,23.7,
1527,SBT4050,1,5,3.62669,-10,337.322,23.9,
1527,SBT4050,1,5,3.61903,-10,359.543,24,
1527,SBT4050,1,5,3.61099,-9.999,381.764,24.3,
1527,SBT4050,1,5,3.6033,-10,403.985,24.5,
1527,SBT4050,1,5,3.59596,-9.998,426.207,24.7,
1527,SBT4050,1,5,3.58845,-9.998,448.428,24.7,
1527,SBT4050,1,5,3.58094,-9.998,470.649,24.8,
1527,SBT4050,1,5,3.57323,-10,492.87,25.1,
1527,SBT4050,1,5,3.56548,-9.999,515.091,25.4,
1527,SBT4050,1,5,3.5582,-9.998,537.311,25.5,
1527,SBT4050,1,5,3.5503,-10.001,559.532,25.6,
1527,SBT4050,1,5,3.54263,-10,581.754,25.7,
1527,SBT4050,1,5,3.53537,-10,603.975,25.8,
1527,SBT4050,1,5,3.52731,-10.001,626.195,26,
1527,SBT4050,1,5,3.51969,-10,648.416,26,
1527,SBT4050,1,5,3.51214,-10,670.637,26.1,
1527,SBT4050,1,5,3.5043,-9.998,692.858,26.1,
1527,SBT4050,1,5,3.49663,-9.998,715.079,26.4,
1527,SBT4050,1,5,3.48859,-9.999,737.3,26.6,
1527,SBT4050,1,5,3.481002,-10,759.521,26.7,
1527,SBT4050,1,5,3.473036,-10,781.742,26.6,
1527,SBT4050,1,5,3.46527,-10,803.963,26.4,
1527,SBT4050,1,5,3.45736,-9.998,826.183,26.7,
1527,SBT4050,1,5,3.44993,-9.999,848.404,26.8,
1527,SBT4050,1,5,3.44214,-9.998,870.625,26.8,
1527,SBT4050,1,5,3.43452,-10,892.846,27,
1527,SBT4050,1,5,3.42713,-10,915.067,27,
1527,SBT4050,1,5,3.41952,-10.001,937.288,27.3,
1527,SBT4050,1,5,3.4122,-10,959.509,27.2,
1527,SBT4050,1,5,3.40477,-10,981.731,27.2,
1527,SBT4050,1,5,3.397858,-9.999,1003.952,27.2,
1527,SBT4050,1,5,3.39048,-10.001,1026.172,27.3,
1527,SBT4050,1,5,3.3835,-9.999,1048.393,27.6,
1527,SBT4050,1,5,3.37633,-9.999,1070.613,27.6,
1527,SBT4050,1,5,3.36928,-9.999,1092.834,27.6,
1527,SBT4050,1,5,3.36251,-9.998,1115.055,27.8,
1527,SBT4050,1,5,3.35585,-9.998,1137.276,27.9,
1527,SBT4050,1,5,3.34883,-10,1159.497,27.9,
1527,SBT4050,1,5,3.34221,-9.998,1181.718,27.7,
1527,SBT4050,1,5,3.33542,-9.999,1203.938,28,
1527,SBT4050,1,5,3.328794,-9.998,1226.159,28.1,
1527,SBT4050,1,5,3.32209,-10.001,1248.38,28.2,
1527,SBT4050,1,5,3.31524,-9.999,1270.601,27.9,
1527,SBT4050,1,5,3.30848,-9.999,1292.822,28,
1527,SBT4050,1,5,3.3017,-9.999,1315.042,27.9,
1527,SBT4050,1,5,3.29455,-9.999,1337.263,27.9,
1527,SBT4050,1,5,3.28784,-9.998,1359.485,28.1,
1527,SBT4050,1,5,3.28087,-9.999,1381.706,28.2,
1527,SBT4050,1,5,3.27346,-10.001,1403.927,28.3,
1527,SBT4050,1,5,3.266573,-9.998,1426.148,28.3,
1527,SBT4050,1,5,3.25933,-9.999,1448.369,28.5,
1527,SBT4050,1,5,3.25209,-9.998,1470.589,28.3,
1527,SBT4050,1,5,3.24445,-9.999,1492.81,28.4,
1527,SBT4050,1,5,3.23678,-9.999,1515.031,28.5,
1527,SBT4050,1,5,3.22894,-10.001,1537.252,28.5,
1527,SBT4050,1,5,3.22103,-10.001,1559.473,28.6,
1527,SBT4050,1,5,3.21294,-9.999,1581.694,28.7,
1527,SBT4050,1,5,3.20472,-9.999,1603.914,28.6,
1527,SBT4050,1,5,3.196409,-9.999,1626.135,28.6,
1527,SBT4050,1,5,3.18757,-10.001,1648.356,28.5,
1527,SBT4050,1,5,3.17878,-9.999,1670.577,28.6,
1527,SBT4050,1,5,3.16955,-9.999,1692.798,28.5,
1527,SBT4050,1,5,3.16034,-10,1715.019,28.8,
1527,SBT4050,1,5,3.150529,-10,1737.24,28.6,
1527,SBT4050,1,5,3.14036,-9.999,1759.462,28.8,
1527,SBT4050,1,5,3.129567,-10,1781.683,28.8,
1527,SBT4050,1,5,3.1186,-10,1803.904,29,
1527,SBT4050,1,5,3.106786,-9.999,1826.126,29.2,
1527,SBT4050,1,5,3.0948,-9.999,1848.347,29.4,
1527,SBT4050,1,5,3.08154,-9.999,1870.568,29.2,
1527,SBT4050,1,5,3.06755,-9.998,1892.789,29.1,
1527,SBT4050,1,5,3.05251,-9.999,1915.01,29,
1527,SBT4050,1,5,3.03672,-10.001,1937.231,29.4,
1527,SBT4050,1,5,3.01971,-10.001,1959.452,29.7,
1527,SBT4050,1,5,3.00067,-9.999,1981.673,29.7,
1527,SBT4050,1,5,2.979396,-9.999,2003.894,29.7,
1527,SBT4050,1,5,2.955944,-10.001,2026.115,29.6,
1527,SBT4050,1,5,2.93018,-9.999,2048.335,30,
1527,SBT4050,1,5,2.90037,-10.001,2070.556,30,
1527,SBT4050,1,5,2.86731,-9.999,2092.777,29.9,
1527,SBT4050,1,5,2.82985,-10,2114.998,30.1,
1527,SBT4050,1,5,2.78821,-10,2137.219,30.4,
1527,SBT4050,1,5,2.741033,-10,2159.44,30.6,
1527,SBT4050,1,5,2.68808,-9.998,2181.662,31,
1527,SBT4050,1,5,2.627638,-9.999,2203.883,31.1,
1527,SBT4050,1,5,2.55746,-9.999,2226.104,31.2,
1527,SBT4050,1,5,2.894262,0,2241.739,31.5,
1527,SBT4050,1,5,3.004369,0,2241.739,31.5,
1527,SBT4050,1,5,3.04189,0,2241.739,31.3,
1527,SBT4050,1,5,3.06231,0,2241.739,31.1,
1527,SBT4050,1,5,3.07489,0,2241.739,30.7,
1527,SBT4050,1,5,3.08388,0,2241.739,30.3,
1527,SBT4050,1,5,3.09058,0,2241.739,30.1,
1527,SBT4050,1,5,3.09557,0,2241.739,29.4,
1527,SBT4050,1,5,3.09982,0,2241.739,28.8,
1527,SBT4050,1,5,3.1034,0,2241.739,28.7,
1527,SBT4050,1,5,3.10625,0,2241.739,28.6,
1527,SBT4050,1,5,3.10907,0,2241.739,28.2,
1527,SBT4050,1,5,3.111268,0,2241.739,27.8,
1527,SBT4050,1,5,3.11367,0,2241.739,27.5,
1527,SBT4050,1,5,3.115371,0,2241.739,26.9,
1527,SBT4050,1,5,3.117283,0,2241.739,26.6,
1527,SBT4050,1,5,3.11894,0,2241.739,26.2,
1527,SBT4050,1,5,3.12041,0,2241.739,26.1,
1527,SBT4050,1,5,3.12193,0,2241.739,26,
1527,SBT4050,1,5,3.12297,0,2241.739,25.7,
1527,SBT4050,1,5,3.124015,0,2241.739,25.4,
1527,SBT4050,1,5,3.12524,0,2241.739,25.3,
1527,SBT4050,1,5,3.12632,0,2241.739,25,
1527,SBT4050,1,5,3.12718,0,2241.739,24.8,
1527,SBT4050,1,5,3.12826,0,2241.739,24.7,
1527,SBT4050,1,5,3.12903,0,2241.739,24.5,
1527,SBT4050,1,5,3.1298,0,2241.739,24.2,
1527,SBT4050,1,5,3.13065,0,2241.739,24,
1527,SBT4050,1,5,3.13168,0,2241.739,23.9,
1527,SBT4050,1,5,3.132122,0,2241.739,23.8,
1527,SBT4050,1,5,3.13299,0,2241.739,23.7,
1527,SBT4050,1,5,3.13352,0,2241.739,23.5,
1527,SBT4050,1,5,3.134025,0,2241.739,23.4,
1527,SBT4050,1,5,3.134758,0,2241.739,23.3,
1527,SBT4050,1,5,3.13516,0,2241.739,23,
1527,SBT4050,1,5,3.13566,0,2241.739,23,
1527,SBT4050,1,5,3.1361,0,2241.739,22.9,
1527,SBT4050,1,5,3.136865,0,2241.739,22.8,
1527,SBT4050,1,5,3.13754,0,2241.739,22.7,
1527,SBT4050,1,5,3.137662,0,2241.739,22.6,
1527,SBT4050,1,5,3.13838,0,2241.739,22.5,
1527,SBT4050,1,5,3.13862,0,2241.739,22.5,
1527,SBT4050,1,5,3.139093,0,2241.739,22.4,
1527,SBT4050,1,5,3.13982,0,2241.739,22.3,
1527,SBT4050,1,5,3.13997,0,2241.739,22.1,
1527,SBT4050,1,5,3.14038,0,2241.739,22.2,
1527,SBT4050,1,5,3.14084,0,2241.739,22.1,
1527,SBT4050,1,5,3.141164,0,2241.739,22,
1527,SBT4050,1,5,3.14164,0,2241.739,21.9,
1527,SBT4050,1,5,3.14191,0,2241.739,21.9,
1527,SBT4050,1,5,3.14232,0,2241.739,21.8,
1527,SBT4050,1,5,3.14271,0,2241.739,21.7,
1527,SBT4050,1,5,3.14299,0,2241.739,21.6,
1527,SBT4050,1,5,3.14345,0,2241.739,21.6,
1527,SBT4050,1,5,3.14374,0,2241.739,21.6,
1527,SBT4050,1,5,3.14403,0,2241.739,21.5,
1527,SBT4050,1,5,3.144317,0,2241.739,21.5,
1527,SBT4050,1,5,3.14471,0,2241.739,21.5,
1527,SBT4050,1,5,3.14484,0,2241.739,21.4,
1527,SBT4050,1,5,3.145224,0,2241.739,21.4,
1527,SBT4050,1,5,3.1456,0,2241.739,21.3,
1527,SBT4050,1,5,3.145892,0,2241.739,21.3,
1527,SBT4050,1,5,3.14628,0,2241.739,21.3,
1527,SBT4050,1,5,3.14644,0,2241.739,21.3,
1527,SBT4050,1,5,3.14668,0,2241.739,21.1,
1527,SBT4050,1,5,3.14696,0,2241.739,21.2,
1527,SBT4050,1,5,3.14708,0,2241.739,21.2,
1527,SBT4050,1,5,3.14744,0,2241.739,21.1,
1527,SBT4050,1,5,3.14778,0,2241.739,21.1,
1527,SBT4050,1,5,3.14784,0,2241.739,21.1,
1527,SBT4050,1,5,3.14824,0,2241.739,21,
1527,SBT4050,1,5,3.14847,0,2241.739,21,
1527,SBT4050,1,5,3.14879,0,2241.739,21,
1527,SBT4050,1,5,3.14884,0,2241.739,21,
1527,SBT4050,1,5,3.14903,0,2241.739,20.9,
1527,SBT4050,1,5,3.14953,0,2241.739,20.9,
1527,SBT4050,1,5,3.149676,0,2241.739,20.9,
1527,SBT4050,1,5,3.14991,0,2241.739,20.9,
1527,SBT4050,1,5,3.150061,0,2241.739,20.9,
1527,SBT4050,1,5,3.15046,0,2241.739,20.9,
1527,SBT4050,1,5,3.15047,0,2241.739,20.8,
1527,SBT4050,1,5,3.150864,0,2241.739,20.9,
1527,SBT4050,1,5,3.151043,0,2241.739,20.8,
1527,SBT4050,1,5,3.15112,0,2241.739,20.8,
1527,SBT4050,1,5,3.151439,0,2241.739,20.8,
1527,SBT4050,1,5,3.15157,0,2241.739,20.8,
1527,SBT4050,1,5,3.15189,0,2241.739,20.8,
1527,SBT4050,1,5,3.15209,0,2241.739,20.7,
1527,SBT4050,1,5,3.15233,0,2241.739,20.7,
1527,SBT4050,1,5,3.152628,0,2241.739,20.7,
1527,SBT4050,1,5,3.15284,0,2241.739,20.7,
1527,SBT4050,1,5,3.15275,0,2241.739,20.7,
1527,SBT4050,1,5,3.15314,0,2241.739,20.7,
1527,SBT4050,1,5,3.15325,0,2241.739,20.7,
1527,SBT4050,1,5,3.15345,0,2241.739,20.6,
1527,SBT4050,1,5,3.15393,0,2241.739,20.6,
1527,SBT4050,1,5,3.15393,0,2241.739,20.6,
1527,SBT4050,1,5,3.15406,0,2241.739,20.6,
1527,SBT4050,1,5,3.15392,0,2241.739,20.7,
1527,SBT4050,1,5,3.15458,0,2241.739,20.6,
1527,SBT4050,1,5,3.15428,0,2241.739,20.6,
1527,SBT4050,1,5,3.154854,0,2241.739,20.7,
1527,SBT4050,1,5,3.15494,0,2241.739,20.6,
1527,SBT4050,1,5,3.155071,0,2241.739,20.6,
1527,SBT4050,1,5,3.15497,0,2241.739,20.6,
1527,SBT4050,1,5,3.1552,0,2241.739,20.6,
1527,SBT4050,1,5,3.15537,0,2241.739,20.6,
1527,SBT4050,1,5,3.155526,0,2241.739,20.6,
1527,SBT4050,1,5,3.15572,0,2241.739,20.6,
1527,SBT4050,1,5,3.15564,0,2241.739,20.6,
1527,SBT4050,1,5,3.15605,0,2241.739,20.6,
1527,SBT4050,1,5,3.15633,0,2241.739,20.6,
1527,SBT4050,1,5,3.1562,0,2241.739,20.6,
1527,SBT4050,1,5,3.351165,3.9997,2241.739,20.6,
1527,SBT4050,1,5,3.404428,3.9997,2241.739,20.6,
1527,SBT4050,1,5,3.44333,4.0003,2241.739,20.6,
1527,SBT4050,1,5,3.47438,3.9998,2241.739,20.6,
1527,SBT4050,1,5,3.49981,3.9992,2241.739,20.6,
1527,SBT4050,1,5,3.52109,4.0001,2241.739,20.7,
1527,SBT4050,1,5,3.53913,3.9999,2241.739,20.7,
1527,SBT4050,1,5,3.55427,3.9996,2241.739,20.7,
1527,SBT4050,1,5,3.567518,3.9999,2241.739,20.8,
1527,SBT4050,1,5,3.578534,4.0002,2241.739,20.8,
1527,SBT4050,1,5,3.588382,4.0004,2241.739,20.9,
1527,SBT4050,1,5,3.59599,3.9999,2241.739,20.9,
1527,SBT4050,1,5,3.60286,4.0005,2241.739,21,
1527,SBT4050,1,5,3.60746,3.9998,2241.739,21,
1527,SBT4050,1,5,3.61147,4.0001,2241.739,21.1,
1527,SBT4050,1,5,3.61466,3.9998,2241.739,21.2,
1527,SBT4050,1,5,3.61802,4.0003,2241.739,21.3,
1527,SBT4050,1,5,3.62075,3.9997,2241.739,21.3,
1527,SBT4050,1,5,3.62382,4.0001,2241.739,21.3,
1527,SBT4050,1,5,3.62709,4.0001,2241.739,21.4,
1527,SBT4050,1,5,3.630582,3.9998,2241.739,21.4,
1527,SBT4050,1,5,3.63377,4.0005,2241.739,21.4,
1527,SBT4050,1,5,3.63732,4.0003,2241.739,21.5,
1527,SBT4050,1,5,3.64038,3.9997,2241.739,21.5,
1527,SBT4050,1,5,3.64411,3.9991,2241.739,21.6,
1527,SBT4050,1,5,3.647256,4,2241.739,21.6,
1527,SBT4050,1,5,3.65069,3.9993,2241.739,21.7,
1527,SBT4050,1,5,3.65389,4.0005,2241.739,21.8,
1527,SBT4050,1,5,3.657572,3.9997,2241.739,21.8,
1527,SBT4050,1,5,3.66065,3.9996,2241.739,21.8,
1527,SBT4050,1,5,3.66373,3.9998,2241.739,21.8,
1527,SBT4050,1,5,3.666798,3.9997,2241.739,21.9,
1527,SBT4050,1,5,3.67029,3.9998,2241.739,21.9,
1527,SBT4050,1,5,3.67335,4.0003,2241.739,21.9,
1527,SBT4050,1,5,3.676376,3.9993,2241.739,21.9,
1527,SBT4050,1,5,3.679476,3.9996,2241.739,21.9,
1527,SBT4050,1,5,3.682478,4.0002,2241.739,22,
1527,SBT4050,1,5,3.68559,3.9996,2241.739,22,
1527,SBT4050,1,5,3.68848,3.9996,2241.739,22,
1527,SBT4050,1,5,4.39808,3.8136,2241.739,,
1527,SBT4050,1,5,3.50379,0,2241.739,,