File: Dataset/AANDCNet/cell1/cycle_13/Test1526.csv
Test:,1526,,,,,,,
Start Time:,7/13/2021 10:10 PM,,,,,,,
End Time:,7/14/2021 12:55 AM,,,,,,,
Test,Rack,Shelf,Position,Voltage (V),Current (A),Discharge Capacity (mAh),TC_1 (C),
1526,SBT4050,1,4,3.519704,0,0,,
1526,SBT4050,1,4,3.52019,0,0,20.1,
1526,SBT4050,1,4,3.52005,0,0,20.2,
1526,SBT4050,1,4,3.52015,0,0,20.3,
1526,SBT4050,1,4,3.520054,0,0,20.2,
1526,SBT4050,1,4,3.51988,0,0,20.2,
1526,SBT4050,1,4,3.52013,0,0,20.2,
1526,SBT4050,1,4,3.52001,0,0,20.2,
1526,SBT4050,1,4,3.64377,3.9997,0,20.2,
1526,SBT4050,1,4,3.662752,3.9997,0,20.2,
1526,SBT4050,1,4,3.67636,4,0,20.2,
1526,SBT4050,1,4,3.6873,4,0,20.3,
1526,SBT4050,1,4,3.696316,3.9997,0,20.4,
1526,SBT4050,1,4,3.70471,4.0003,0,20.4,
1526,SBT4050,1,4,3.71183,4.0001,0,20.5,
1526,SBT4050,1,4,3.71813,3.9997,0,20.6,
1526,SBT4050,1,4,3.72357,4.0003,0,20.6,
1526,SBT4050,1,4,3.729368,4.0003,0,20.6,
1526,SBT4050,1,4,3.734652,4.0002,0,20.7,
1526,SBT4050,1,4,3.74017,4,0,20.7,
1526,SBT4050,1,4,3.74484,4,0,20.8,
1526,SBT4050,1,4,3.74959,4.0005,0,20.8,
1526,SBT4050,1,4,3.75377,3.9993,0,20.8,
1526,SBT4050,1,4,3.75745,3.9999,0,20.9,
1526,SBT4050,1,4,3.76093,3.9999,0,20.9,
1526,SBT4050,1,4,3.76344,3.9999,0,21,
1526,SBT4050,1,4,3.76642,3.9997,0,21,
1526,SBT4050,1,4,3.76887,4.0002,0,21,
1526,SBT4050,1,4,3.77106,3.9993,0,21.1,
1526,SBT4050,1,4,3.77314,3.9997,0,21.1,
1526,SBT4050,1,4,3.77552,3.9999,0,21.1,
1526,SBT4050,1,4,3.77749,3.9996,0,21.1,
1526,SBT4050,1,4,3.77934,3.9998,0,21.2,
1526,SBT4050,1,4,3.78161,3.9996,0,21.2,
1526,SBT4050,1,4,3.783694,3.9999,0,21.2,
1526,SBT4050,1,4,3.786146,3.9998,0,21.3,
1526,SBT4050,1,4,3.788,4.0002,0,21.3,
1526,SBT4050,1,4,3.79026,3.9999,0,21.3,
1526,SBT4050,1,4,3.79262,3.9998,0,21.3,
1526,SBT4050,1,4,3.79476,3.9995,0,21.3,
1526,SBT4050,1,4,3.79723,4.0004,0,21.4,
1526,SBT4050,1,4,3.79934,4.0002,0,21.4,
1526,SBT4050,1,4,3.80228,3.9992,0,21.5,
1526,SBT4050,1,4,3.80448,4.0005,0,21.4,
1526,SBT4050,1,4,3.80685,3.9998,0,21.5,
1526,SBT4050,1,4,3.80946,4.0001,0,21.5,
1526,SBT4050,1,4,3.81249,3.9996,0,21.5,
1526,SBT4050,1,4,3.81494,4.0004,0,21.5,
1526,SBT4050,1,4,3.8177,3.9999,0,21.6,
1526,SBT4050,1,4,3.820448,3.9996,0,21.6,
1526,SBT4050,1,4,3.82289,3.9997,0,21.6,
1526,SBT4050,1,4,3.82587,3.9999,0,21.6,
1526,SBT4050,1,4,3.828612,4.0001,0,21.7,
1526,SBT4050,1,4,3.83159,3.9999,0,21.7,
1526,SBT4050,1,4,3.83456,3.9996,0,21.7,
1526,SBT4050,1,4,3.83724,3.9998,0,21.7,
1526,SBT4050,1,4,3.83984,4.0001,0,21.7,
1526,SBT4050,1,4,3.84299,3.9998,0,21.8,
1526,SBT4050,1,4,3.84561,4.0002,0,21.8,
1526,SBT4050,1,4,3.84874,3.9999,0,21.8,
1526,SBT4050,1,4,3.85151,4.0001,0,21.8,
1526,SBT4050,1,4,3.85443,3.9992,0,21.9,
1526,SBT4050,1,4,3.85741,3.9998,0,21.9,
1526,SBT4050,1,4,3.86038,3.9997,0,21.9,
1526,SBT4050,1,4,3.863294,4.0004,0,21.9,
1526,SBT4050,1,4,3.866452,3.9999,0,21.9,
1526,SBT4050,1,4,3.86933,3.9995,0,21.9,
1526,SBT4050,1,4,3.87233,3.9997,0,22,
1526,SBT4050,1,4,3.87553,3.9995,0,22,
1526,SBT4050,1,4,3.87878,3.9998,0,22,
1526,SBT4050,1,4,3.88193,3.9998,0,22.1,
1526,SBT4050,1,4,3.88486,3.9993,0,22.1,
1526,SBT4050,1,4,3.88817,4,0,22.1,
1526,SBT4050,1,4,3.89137,4.0003,0,22.1,
1526,SBT4050,1,4,3.8944,4.0006,0,22.1,
1526,SBT4050,1,4,3.89797,3.9998,0,22.2,
1526,SBT4050,1,4,3.90121,4,0,22.2,
1526,SBT4050,1,4,3.9045,3.9997,0,22.2,
1526,SBT4050,1,4,3.90772,4.0001,0,22.2,
1526,SBT4050,1,4,3.9113,4.0003,0,22.2,
1526,SBT4050,1,4,3.91474,4.0001,0,22.3,
1526,SBT4050,1,4,3.91808,3.9999,0,22.3,
1526,SBT4050,1,4,3.92145,3.9992,0,22.3,
1526,SBT4050,1,4,3.9247,4,0,22.4,
1526,SBT4050,1,4,3.92795,3.9999,0,22.3,
1526,SBT4050,1,4,3.93152,3.9997,0,22.4,
1526,SBT4050,1,4,3.93526,3.9999,0,22.4,
1526,SBT4050,1,4,3.939,4.0005,0,22.4,
1526,SBT4050,1,4,3.94211,4.0002,0,22.5,
1526,SBT4050,1,4,3.94578,4.0005,0,22.5,
1526,SBT4050,1,4,3.949584,3.9996,0,22.5,
1526,SBT4050,1,4,3.95306,4.0002,0,22.5,
1526,SBT4050,1,4,3.9566,3.9995,0,22.5,
1526,SBT4050,1,4,3.96025,4.0002,0,22.6,
1526,SBT4050,1,4,3.963518,3.9999,0,22.6,
1526,SBT4050,1,4,3.9673,4.0006,0,22.6,
1526,SBT4050,1,4,3.971,4,0,22.6,
1526,SBT4050,1,4,3.97439,3.9996,0,22.6,
1526,SBT4050,1,4,3.97834,4,0,22.6,
1526,SBT4050,1,4,3.98155,3.9997,0,22.6,
1526,SBT4050,1,4,3.98539,4.0002,0,22.7,
1526,SBT4050,1,4,3.98872,4.0005,0,22.7,
1526,SBT4050,1,4,3.99259,4.0002,0,22.7,
1526,SBT4050,1,4,3.996054,4.0002,0,22.7,
1526,SBT4050,1,4,3.999468,4,0,22.7,
1526,SBT4050,1,4,4.00327,4.0002,0,22.8,
1526,SBT4050,1,4,4.00678,4.0002,0,22.8,
1526,SBT4050,1,4,4.01026,3.9996,0,22.8,
1526,SBT4050,1,4,4.01409,3.9999,0,22.8,
1526,SBT4050,1,4,4.01764,4.0005,0,22.8,
1526,SBT4050,1,4,4.02115,3.9997,0,22.8,
1526,SBT4050,1,4,4.0246,4.0005,0,22.8,
1526,SBT4050,1,4,4.02792,3.9999,0,22.8,
1526,SBT4050,1,4,4.031664,4.0004,0,22.9,
1526,SBT4050,1,4,4.035368,4.0002,0,22.9,
1526,SBT4050,1,4,4.03873,4.0002,0,22.9,
1526,SBT4050,1,4,4.04241,4.0001,0,22.9,
1526,SBT4050,1,4,4.04586,4.0001,0,22.9,
1526,SBT4050,1,4,4.04935,3.9999,0,22.9,
1526,SBT4050,1,4,4.05316,3.9996,0,23,
1526,SBT4050,1,4,4.05636,3.9999,0,23,
1526,SBT4050,1,4,4.060134,4.0002,0,23,
1526,SBT4050,1,4,4.06367,4.0001,0,23,
1526,SBT4050,1,4,4.06728,3.9998,0,23,
1526,SBT4050,1,4,4.07081,3.9993,0,23,
1526,SBT4050,1,4,4.074512,3.9999,0,23,
1526,SBT4050,1,4,4.07798,4.0001,0,23,
1526,SBT4050,1,4,4.08182,3.9998,0,23,
1526,SBT4050,1,4,4.08513,3.9996,0,23,
1526,SBT4050,1,4,4.0892,3.9995,0,23,
1526,SBT4050,1,4,4.09263,3.9996,0,23.1,
1526,SBT4050,1,4,4.09631,3.9998,0,23.1,
1526,SBT4050,1,4,4.10035,3.9999,0,23.1,
1526,SBT4050,1,4,4.10437,3.9999,0,23.1,
1526,SBT4050,1,4,4.10787,3.9998,0,23.1,
1526,SBT4050,1,4,4.11233,3.9995,0,23.1,
1526,SBT4050,1,4,4.115956,4.0005,0,23.1,
1526,SBT4050,1,4,4.11997,4.0004,0,23.1,
1526,SBT4050,1,4,4.12437,4.0001,0,23.1,
1526,SBT4050,1,4,4.12831,3.9999,0,23.1,
1526,SBT4050,1,4,4.13238,4.0004,0,23.1,
1526,SBT4050,1,4,4.13732,4.0003,0,23.2,
1526,SBT4050,1,4,4.14186,3.9995,0,23.2,
1526,SBT4050,1,4,4.14624,3.9997,0,23.2,
1526,SBT4050,1,4,4.15122,4.0003,0,23.2,
1526,SBT4050,1,4,4.15474,4.0001,0,23.2,
1526,SBT4050,1,4,4.15976,3.9995,0,23.2,
1526,SBT4050,1,4,4.16373,3.9996,0,23.3,
1526,SBT4050,1,4,4.16806,3.9995,0,23.2,
1526,SBT4050,1,4,4.17244,4.0005,0,23.2,
1526,SBT4050,1,4,4.177584,4,0,23.2,
1526,SBT4050,1,4,4.18202,3.9998,0,23.2,
1526,SBT4050,1,4,4.18691,4.0001,0,23.2,
1526,SBT4050,1,4,4.19155,4.0001,0,23.3,
1526,SBT4050,1,4,4.19663,4.0001,0,23.3,
1526,SBT4050,1,4,4.20025,3.9773,0,23.3,
1526,SBT4050,1,4,4.20019,3.8116,0,23.3,
1526,SBT4050,1,4,4.20034,3.6861,0,23.3,
1526,SBT4050,1,4,4.200142,3.5737,0,23.2,
1526,SBT4050,1,4,4.20008,3.4747,0,23.3,
1526,SBT4050,1,4,4.20033,3.3884,0,23.3,
1526,SBT4050,1,4,4.20024,3.2991,0,23.3,
1526,SBT4050,1,4,4.20005,3.2176,0,23.3,
1526,SBT4050,1,4,4.20017,3.1386,0,23.3,
1526,SBT4050,1,4,4.200154,3.0681,0,23.2,
1526,SBT4050,1,4,4.20023,2.9913,0,23.2,
1526,SBT4050,1,4,4.20013,2.9255,0,23.2,
1526,SBT4050,1,4,4.20025,2.8577,0,23.2,
1526,SBT4050,1,4,4.20018,2.7939,0,23.2,
1526,SBT4050,1,4,4.19995,2.7329,0,23.2,
1526,SBT4050,1,4,4.20017,2.6734,0,23.1,
1526,SBT4050,1,4,4.20008,2.6171,0,23.1,
1526,SBT4050,1,4,4.20025,2.5655,0,23,
1526,SBT4050,1,4,4.20026,2.5157,0,23,
1526,SBT4050,1,4,4.20017,2.4656,0,23.1,
1526,SBT4050,1,4,4.20003,2.4176,0,23,
1526,SBT4050,1,4,4.20009,2.3754,0,23,
1526,SBT4050,1,4,4.200106,2.334,0,23,
1526,SBT4050,1,4,4.20031,2.2895,0,22.9,
1526,SBT4050,1,4,4.20024,2.2503,0,22.8,
1526,SBT4050,1,4,4.2,2.2087,0,22.9,
1526,SBT4050,1,4,4.200118,2.1708,0,22.8,
1526,SBT4050,1,4,4.20034,2.1339,0,22.8,
1526,SBT4050,1,4,4.20038,2.0927,0,22.8,
1526,SBT4050,1,4,4.19999,2.0602,0,22.7,
1526,SBT4050,1,4,4.2003,2.0231,0,22.7,
1526,SBT4050,1,4,4.20023,1.9939,0,22.7,
1526,SBT4050,1,4,4.2003,1.9599,0,22.7,
1526,SBT4050,1,4,4.20021,1.9257,0,22.7,
1526,SBT4050,1,4,4.20005,1.8953,0,22.6,
1526,SBT4050,1,4,4.2002,1.8673,0,22.6,
1526,SBT4050,1,4,4.20005,1.8352,0,22.6,
1526,SBT4050,1,4,4.20005,1.8078,0,22.5,
1526,SBT4050,1,4,4.20005,1.7777,0,22.5,
1526,SBT4050,1,4,4.20017,1.7465,0,22.5,
1526,SBT4050,1,4,4.20003,1.7162,0,22.5,
1526,SBT4050,1,4,4.20018,1.6888,0,22.5,
1526,SBT4050,1,4,4.20007,1.663,0,22.4,
1526,SBT4050,1,4,4.20009,1.6388,0,22.4,
1526,SBT4050,1,4,4.20018,1.6127,0,22.3,
1526,SBT4050,1,4,4.20008,1.5858,0,22.3,
1526,SBT4050,1,4,4.20002,1.5622,0,22.3,
1526,SBT4050,1,4,4.20023,1.534,0,22.3,
1526,SBT4050,1,4,4.200154,1.511,0,22.3,
1526,SBT4050,1,4,4.19999,1.4897,0,22.3,
1526,SBT4050,1,4,4.20018,1.4665,0,22.2,
1526,SBT4050,1,4,4.20005,1.4444,0,22.2,
1526,SBT4050,1,4,4.19992,1.4202,0,22.2,
1526,SBT4050,1,4,4.20021,1.3965,0,22.2,
1526,SBT4050,1,4,4.19994,1.3756,0,22.2,
1526,SBT4050,1,4,4.20018,1.3527,0,22.1,
1526,SBT4050,1,4,4.19997,1.3334,0,22.1,
1526,SBT4050,1,4,4.20007,1.3099,0,22.1,
1526,SBT4050,1,4,4.199832,1.2905,0,22.1,
1526,SBT4050,1,4,4.20009,1.2716,0,22.1,
1526,SBT4050,1,4,4.20001,1.2515,0,22.1,
1526,SBT4050,1,4,4.19997,1.2294,0,22,
1526,SBT4050,1,4,4.20019,1.2099,0,22,
1526,SBT4050,1,4,4.20007,1.1943,0,22,
1526,SBT4050,1,4,4.20007,1.1758,0,22,
1526,SBT4050,1,4,4.20017,1.1575,0,21.9,
1526,SBT4050,1,4,4.20017,1.1378,0,22,
1526,SBT4050,1,4,4.20006,1.1212,0,21.9,
1526,SBT4050,1,4,4.20028,1.1049,0,21.9,
1526,SBT4050,1,4,4.20002,1.0864,0,21.9,
1526,SBT4050,1,4,4.200142,1.0705,0,21.9,
1526,SBT4050,1,4,4.20021,1.0537,0,21.9,
1526,SBT4050,1,4,4.20026,1.0389,0,21.9,
1526,SBT4050,1,4,4.2,1.024,0,21.9,
1526,SBT4050,1,4,4.19997,1.0059,0,21.8,
1526,SBT4050,1,4,4.19989,0.9914,0,21.8,
1526,SBT4050,1,4,4.20006,0.9782,0,21.8,
1526,SBT4050,1,4,4.200106,0.9622,0,21.8,
1526,SBT4050,1,4,4.20001,0.9482,0,21.8,
1526,SBT4050,1,4,4.20003,0.9343,0,21.7,
1526,SBT4050,1,4,4.19993,0.9177,0,21.8,
1526,SBT4050,1,4,4.2003,0.9046,0,21.7,
1526,SBT4050,1,4,4.20027,0.8907,0,21.7,
1526,SBT4050,1,4,4.20007,0.88,0,21.7,
1526,SBT4050,1,4,4.2,0.8661,0,21.7,
1526,SBT4050,1,4,4.20044,0.8527,0,21.7,
1526,SBT4050,1,4,4.20002,0.8396,0,21.7,
1526,SBT4050,1,4,4.19999,0.8282,0,21.7,
1526,SBT4050,1,4,4.20006,0.8167,0,21.7,
1526,SBT4050,1,4,4.200142,0.8049,0,21.6,
1526,SBT4050,1,4,4.20005,0.793,0,21.6,
1526,SBT4050,1,4,4.20009,0.7789,0,21.6,
1526,SBT4050,1,4,4.19996,0.7686,0,21.6,
1526,SBT4050,1,4,4.19978,0.7576,0,21.6,
1526,SBT4050,1,4,4.19994,0.7439,0,21.6,
1526,SBT4050,1,4,4.19988,0.7306,0,21.6,
1526,SBT4050,1,4,4.200154,0.7244,0,21.6,
1526,SBT4050,1,4,4.199832,0.7153,0,21.5,
1526,SBT4050,1,4,4.19995,0.7032,0,21.6,
1526,SBT4050,1,4,4.20006,0.6949,0,21.5,
1526,SBT4050,1,4,4.20002,0.6851,0,21.5,
1526,SBT4050,1,4,4.20007,0.6758,0,21.5,
1526,SBT4050,1,4,4.200106,0.6663,0,21.5,
1526,SBT4050,1,4,4.20027,0.6568,0,21.5,
1526,SBT4050,1,4,4.20005,0.6491,0,21.5,
1526,SBT4050,1,4,4.20003,0.6385,0,21.5,
1526,SBT4050,1,4,4.20038,0.6295,0,21.5,
1526,SBT4050,1,4,4.20001,0.6185,0,21.5,
1526,SBT4050,1,4,4.200118,0.6102,0,21.5,
1526,SBT4050,1,4,4.20032,0.602,0,21.5,
1526,SBT4050,1,4,4.20008,0.594,0,21.5,
1526,SBT4050,1,4,4.1999,0.5893,0,21.5,
1526,SBT4050,1,4,4.20017,0.5814,0,21.5,
1526,SBT4050,1,4,4.200106,0.5705,0,21.5,
1526,SBT4050,1,4,4.20001,0.5632,0,21.4,
1526,SBT4050,1,4,4.20017,0.556,0,21.4,
1526,SBT4050,1,4,4.19994,0.548,0,21.4,
1526,SBT4050,1,4,4.20006,0.5418,0,21.4,
1526,SBT4050,1,4,4.2,0.5337,0,21.4,
1526,SBT4050,1,4,4.20009,0.5277,0,21.4,
1526,SBT4050,1,4,4.20008,0.5191,0,21.4,
1526,SBT4050,1,4,4.20032,0.5121,0,21.4,
1526,SBT4050,1,4,4.20006,0.5042,0,21.4,
1526,SBT4050,1,4,4.20025,0.4985,0,21.4,
1526,SBT4050,1,4,4.20002,0.4935,0,21.4,
1526,SBT4050,1,4,4.20013,0.4888,0,21.4,
1526,SBT4050,1,4,4.19999,0.4814,0,21.4,
1526,SBT4050,1,4,4.200118,0.4767,0,21.3,
1526,SBT4050,1,4,4.20013,0.47128,0,21.4,
1526,SBT4050,1,4,4.200106,0.4639,0,21.3,
1526,SBT4050,1,4,4.20002,0.45766,0,21.3,
1526,SBT4050,1,4,4.20002,0.4525,0,21.3,
1526,SBT4050,1,4,4.20003,0.44591,0,21.3,
1526,SBT4050,1,4,4.20007,0.44047,0,21.3,
1526,SBT4050,1,4,4.200106,0.43443,0,21.3,
1526,SBT4050,1,4,4.20002,0.43073,0,21.3,
1526,SBT4050,1,4,4.20007,0.4253,0,21.3,
1526,SBT4050,1,4,4.19996,0.41951,0,21.3,
1526,SBT4050,1,4,4.200106,0.41457,0,21.3,
1526,SBT4050,1,4,4.200118,0.40889,0,21.3,
1526,SBT4050,1,4,4.20032,0.40217,0,21.3,
1526,SBT4050,1,4,4.20048,0.39817,0,21.3,
1526,SBT4050,1,4,4.20023,0.39432,0,21.2,
1526,SBT4050,1,4,4.20021,0.3901,0,21.3,
1526,SBT4050,1,4,4.19993,0.3866,0,21.3,
1526,SBT4050,1,4,4.20017,0.38136,0,21.2,
1526,SBT4050,1,4,4.200154,0.37527,0,21.2,
1526,SBT4050,1,4,4.20027,0.37176,0,21.2,
1526,SBT4050,1,4,4.20002,0.3668,0,21.2,
1526,SBT4050,1,4,4.1999,0.36023,0,21.3,
1526,SBT4050,1,4,4.200118,0.35735,0,21.2,
1526,SBT4050,1,4,4.19971,0.35403,0,21.2,
1526,SBT4050,1,4,4.20003,0.3511,0,21.2,
1526,SBT4050,1,4,4.19997,0.34731,0,21.2,
1526,SBT4050,1,4,4.20006,0.34383,0,21.2,
1526,SBT4050,1,4,4.19996,0.34028,0,21.2,
1526,SBT4050,1,4,4.20005,0.33559,0,21.2,
1526,SBT4050,1,4,4.19999,0.33238,0,21.2,
1526,SBT4050,1,4,4.20013,0.32674,0,21.2,
1526,SBT4050,1,4,4.19986,0.32397,0,21.2,
1526,SBT4050,1,4,4.20018,0.32109,0,21.2,
1526,SBT4050,1,4,4.200154,0.31764,0,21.2,
1526,SBT4050,1,4,4.19992,0.31431,0,21.2,
1526,SBT4050,1,4,4.20001,0.31032,0,21.2,
1526,SBT4050,1,4,4.19986,0.3061,0,21.2,
1526,SBT4050,1,4,4.20007,0.30272,0,21.2,
1526,SBT4050,1,4,4.200142,0.30069,0,21.2,
1526,SBT4050,1,4,4.20009,0.29839,0,21.2,
1526,SBT4050,1,4,4.20005,0.29427,0,21.2,
1526,SBT4050,1,4,4.20024,0.29077,0,21.2,
1526,SBT4050,1,4,4.20034,0.28679,0,21.2,
1526,SBT4050,1,4,4.19993,0.28438,0,21.2,
1526,SBT4050,1,4,4.20018,0.28127,0,21.2,
1526,SBT4050,1,4,4.1999,0.278,0,21.2,
1526,SBT4050,1,4,4.20032,0.27329,0,21.2,
1526,SBT4050,1,4,4.20006,0.27002,0,21.2,
1526,SBT4050,1,4,4.200154,0.26779,0,21.2,
1526,SBT4050,1,4,4.20017,0.2652,0,21.1,
1526,SBT4050,1,4,4.20018,0.26217,0,21.2,
1526,SBT4050,1,4,4.20002,0.2608,0,21.2,
1526,SBT4050,1,4,4.20002,0.25858,0,21.1,
1526,SBT4050,1,4,4.200106,0.25586,0,21.1,
1526,SBT4050,1,4,4.20003,0.25269,0,21.1,
1526,SBT4050,1,4,4.20021,0.25,0,21.1,
1526,SBT4050,1,4,4.19986,0.24701,0,21.1,
1526,SBT4050,1,4,4.20005,0.24447,0,21.1,
1526,SBT4050,1,4,4.19993,0.24247,0,21.1,
1526,SBT4050,1,4,4.20009,0.23991,0,21.1,
1526,SBT4050,1,4,4.19995,0.23782,0,21.1,
1526,SBT4050,1,4,4.20008,0.23674,0,21.1,
1526,SBT4050,1,4,4.20019,0.23482,0,21.1,
1526,SBT4050,1,4,4.20002,0.23273,0,21.1,
1526,SBT4050,1,4,4.20032,0.23006,0,21.1,
1526,SBT4050,1,4,4.20019,0.2274,0,21.1,
1526,SBT4050,1,4,4.20005,0.22467,0,21.1,
1526,SBT4050,1,4,4.20017,0.22292,0,21.1,
1526,SBT4050,1,4,4.20005,0.22136,0,21.1,
1526,SBT4050,1,4,4.20023,0.21942,0,21.1,
1526,SBT4050,1,4,4.20007,0.21783,0,21.1,
1526,SBT4050,1,4,4.19988,0.21598,0,21.1,
1526,SBT4050,1,4,4.19997,0.21348,0,21.1,
1526,SBT4050,1,4,4.19996,0.21118,0,21.1,
1526,SBT4050,1,4,4.200118,0.20877,0,21.1,
1526,SBT4050,1,4,4.20019,0.20686,0,21.1,
1526,SBT4050,1,4,4.20013,0.20382,0,21.1,
1526,SBT4050,1,4,4.19992,0.20162,0,21.1,
1526,SBT4050,1,4,4.20019,0.1998,0,21.1,
1526,SBT4050,1,4,4.19995,0.1987,0,21.1,
1526,SBT4050,1,4,4.200106,0.19686,0,21.1,
1526,SBT4050,1,4,4.199796,0.19641,0,21.1,
1526,SBT4050,1,4,4.19996,0.1957,0,21,
1526,SBT4050,1,4,4.20005,0.19387,0,21.1,
1526,SBT4050,1,4,4.20021,0.19226,0,21.1,
1526,SBT4050,1,4,4.200404,0.18981,0,21,
1526,SBT4050,1,4,4.20038,0.1872,0,21,
1526,SBT4050,1,4,4.20021,0.18488,0,21,
1526,SBT4050,1,4,4.20008,0.18323,0,21,
1526,SBT4050,1,4,4.200154,0.18187,0,21,
1526,SBT4050,1,4,4.199808,0.18129,0,21,
1526,SBT4050,1,4,4.20036,0.17932,0,21,
1526,SBT4050,1,4,4.20013,0.17795,0,21,
1526,SBT4050,1,4,4.19997,0.17683,0,21,
1526,SBT4050,1,4,4.20032,0.17575,0,21,
1526,SBT4050,1,4,4.19997,0.17433,0,21,
1526,SBT4050,1,4,4.20028,0.1724,0,21,
1526,SBT4050,1,4,4.2003,0.17065,0,21.1,
1526,SBT4050,1,4,4.20026,0.16819,0,21,
1526,SBT4050,1,4,4.19992,0.16666,0,21,
1526,SBT4050,1,4,4.19999,0.16512,0,21,
1526,SBT4050,1,4,4.20007,0.16321,0,21,
1526,SBT4050,1,4,4.19988,0.16145,0,21,
1526,SBT4050,1,4,4.20002,0.16033,0,21,
1526,SBT4050,1,4,4.20007,0.16013,0,21,
1526,SBT4050,1,4,4.20001,0.15956,0,21,
1526,SBT4050,1,4,4.1999,0.15879,0,21,
1526,SBT4050,1,4,4.200404,0.15727,0,21,
1526,SBT4050,1,4,4.200154,0.15589,0,21,
1526,SBT4050,1,4,4.20008,0.15409,0,21,
1526,SBT4050,1,4,4.19996,0.15253,0,21,
1526,SBT4050,1,4,4.20002,0.15121,0,21,
1526,SBT4050,1,4,4.20009,0.15009,0,21,
1526,SBT4050,1,4,4.1999,0.14908,0,21,
1526,SBT4050,1,4,4.19997,0.14715,0,21,
1526,SBT4050,1,4,4.19989,0.14447,0,21,
1526,SBT4050,1,4,4.20069,0.13937,0,21,
1526,SBT4050,1,4,4.20061,0.13558,0,21,
1526,SBT4050,1,4,4.19978,0.13372,0,21,
1526,SBT4050,1,4,4.19969,0.13596,0,21,
1526,SBT4050,1,4,4.20075,0.13534,0,21,
1526,SBT4050,1,4,4.20023,0.1347,0,21,
1526,SBT4050,1,4,4.19986,0.13261,0,21,
1526,SBT4050,1,4,4.200416,0.13308,0,21,
1526,SBT4050,1,4,4.200452,0.13081,0,21,
1526,SBT4050,1,4,4.20019,0.12807,0,21,
1526,SBT4050,1,4,4.2002,0.12718,0,21,
1526,SBT4050,1,4,4.20034,0.12577,0,21,
1526,SBT4050,1,4,4.19988,0.1243,0,21,
1526,SBT4050,1,4,4.20008,0.12309,0,21,
1526,SBT4050,1,4,4.20013,0.12288,0,21,
1526,SBT4050,1,4,4.20027,0.12321,0,21,
1526,SBT4050,1,4,4.1991,0.12507,0,21,
1526,SBT4050,1,4,4.19958,0.12607,0,21,
1526,SBT4050,1,4,4.19995,0.12356,0,21,
1526,SBT4050,1,4,4.20017,0.12244,0,21,
1526,SBT4050,1,4,4.20019,0.12003,0,21,
1526,SBT4050,1,4,4.20002,0.11891,0,21,
1526,SBT4050,1,4,4.19992,0.11898,0,20.9,
1526,SBT4050,1,4,4.19995,0.11836,0,21,
1526,SBT4050,1,4,4.20008,0.11747,0,21,
1526,SBT4050,1,4,4.20005,0.11657,0,21,
1526,SBT4050,1,4,4.200142,0.11614,0,21,
1526,SBT4050,1,4,4.19965,0.11762,0,21,
1526,SBT4050,1,4,4.19994,0.11729,0,21,
1526,SBT4050,1,4,4.19946,0.11813,0,21,
1526,SBT4050,1,4,4.19936,0.12386,0,21,
1526,SBT4050,1,4,4.20052,0.12286,0,21,
1526,SBT4050,1,4,4.20033,0.12129,0,21,
1526,SBT4050,1,4,4.19993,0.11973,0,21,
1526,SBT4050,1,4,4.19994,0.11956,0,21,
1526,SBT4050,1,4,4.20054,0.1158,0,21,
1526,SBT4050,1,4,4.20038,0.11053,0,21,
1526,SBT4050,1,4,4.20013,0.11053,0,21,
1526,SBT4050,1,4,4.20028,0.11271,0,21,
1526,SBT4050,1,4,4.200106,0.11096,0,21,
1526,SBT4050,1,4,4.20017,0.11364,0,21,
1526,SBT4050,1,4,4.20044,0.11089,0,21,
1526,SBT4050,1,4,4.199486,0.10874,0,21,
1526,SBT4050,1,4,4.19964,0.11027,0,21,
1526,SBT4050,1,4,4.20007,0.11115,0,21,
1526,SBT4050,1,4,4.19958,0.11143,0,21,
1526,SBT4050,1,4,4.19945,0.10974,0,20.9,
1526,SBT4050,1,4,4.200416,0.10985,0,21,
1526,SBT4050,1,4,4.19986,0.10517,0,21,
1526,SBT4050,1,4,4.20049,0.10187,0,21,
1526,SBT4050,1,4,4.20055,0.09999,0,,
1526,SBT4050,1,4,4.19689,0,0,21,
1526,SBT4050,1,4,4.19609,0,0,20.9,
1526,SBT4050,1,4,4.19534,0,0,20.9,
1526,SBT4050,1,4,4.19512,0,0,21,
1526,SBT4050,1,4,4.19392,0,0,20.9,
1526,SBT4050,1,4,4.19431,0,0,21,
1526,SBT4050,1,4,4.19373,0,0,21,
1526,SBT4050,1,4,4.1935,0,0,21,
1526,SBT4050,1,4,4.193058,0,0,21,
1526,SBT4050,1,4,4.19267,0,0,20.9,
1526,SBT4050,1,4,4.192212,0,0,21,
1526,SBT4050,1,4,4.19256,0,0,21,
1526,SBT4050,1,4,4.19193,0,0,21,
1526,SBT4050,1,4,4.19185,0,0,20.9,
1526,SBT4050,1,4,4.1917,0,0,21,
1526,SBT4050,1,4,4.19132,0,0,20.9,
1526,SBT4050,1,4,4.19109,0,0,20.9,
1526,SBT4050,1,4,4.19069,0,0,20.9,
1526,SBT4050,1,4,4.19043,0,0,20.9,
1526,SBT4050,1,4,4.190148,0,0,21,
1526,SBT4050,1,4,4.18993,0,0,21,
1526,SBT4050,1,4,4.18963,0,0,21,
1526,SBT4050,1,4,4.18939,0,0,21,
1526,SBT4050,1,4,4.18938,0,0,21,
1526,SBT4050,1,4,4.18907,0,0,20.9,
1526,SBT4050,1,4,4.18918,0,0,20.9,
1526,SBT4050,1,4,4.18884,0,0,20.9,
1526,SBT4050,1,4,4.18879,0,0,20.9,
1526,SBT4050,1,4,4.18882,0,0,20.9,
1526,SBT4050,1,4,4.18865,0,0,20.9,
1526,SBT4050,1,4,4.18821,0,0,20.9,
1526,SBT4050,1,4,4.1878,0,0,20.9,
1526,SBT4050,1,4,4.18756,0,0,20.9,
1526,SBT4050,1,4,4.187552,0,0,20.9,
1526,SBT4050,1,4,4.186928,0,0,20.9,
1526,SBT4050,1,4,4.18683,0,0,20.9,
1526,SBT4050,1,4,4.18698,0,0,20.9,
1526,SBT4050,1,4,4.186744,0,0,20.9,
1526,SBT4050,1,4,4.1866,0,0,20.9,
1526,SBT4050,1,4,4.18669,0,0,20.9,
1526,SBT4050,1,4,4.18646,0,0,20.9,
1526,SBT4050,1,4,4.186346,0,0,20.9,
1526,SBT4050,1,4,4.18604,0,0,20.9,
1526,SBT4050,1,4,4.18554,0,0,20.9,
1526,SBT4050,1,4,4.18564,0,0,20.9,
1526,SBT4050,1,4,4.18548,0,0,20.9,
1526,SBT4050,1,4,4.185322,0,0,20.9,
1526,SBT4050,1,4,4.18512,0,0,20.9,
1526,SBT4050,1,4,4.18496,0,0,20.9,
1526,SBT4050,1,4,4.18473,0,0,20.9,
1526,SBT4050,1,4,4.18477,0,0,20.9,
1526,SBT4050,1,4,4.18456,0,0,20.9,
1526,SBT4050,1,4,4.1845,0,0,20.9,
1526,SBT4050,1,4,4.18451,0,0,20.9,
1526,SBT4050,1,4,4.18432,0,0,20.9,
1526,SBT4050,1,4,4.18434,0,0,20.9,
1526,SBT4050,1,4,4.1842,0,0,20.9,
1526,SBT4050,1,4,4.1839,0,0,20.9,
1526,SBT4050,1,4,4.18368,0,0,20.9,
1526,SBT4050,1,4,4.18387,0,0,20.9,
1526,SBT4050,1,4,4.1834,0,0,20.9,
1526,SBT4050,1,4,4.183184,0,0,20.9,
1526,SBT4050,1,4,4.18304,0,0,20.9,
1526,SBT4050,1,4,4.18276,0,0,20.9,
1526,SBT4050,1,4,4.18286,0,0,20.9,
1526,SBT4050,1,4,4.18261,0,0,20.9,
1526,SBT4050,1,4,4.18223,0,0,20.9,
1526,SBT4050,1,4,4.182176,0,0,20.9,
1526,SBT4050,1,4,4.18226,0,0,20.9,
1526,SBT4050,1,4,4.18207,0,0,20.9,
1526,SBT4050,1,4,4.18193,0,0,20.9,
1526,SBT4050,1,4,4.1821,0,0,20.9,
1526,SBT4050,1,4,4.18201,0,0,20.9,
1526,SBT4050,1,4,4.18185,0,0,20.9,
1526,SBT4050,1,4,4.18178,0,0,20.9,
1526,SBT4050,1,4,4.181472,0,0,20.9,
1526,SBT4050,1,4,4.18151,0,0,20.9,
1526,SBT4050,1,4,4.181574,0,0,20.9,
1526,SBT4050,1,4,4.18132,0,0,20.9,
1526,SBT4050,1,4,4.181118,0,0,20.9,
1526,SBT4050,1,4,4.18112,0,0,20.9,
1526,SBT4050,1,4,4.180894,0,0,20.9,
1526,SBT4050,1,4,4.18113,0,0,20.9,
1526,SBT4050,1,4,4.18098,0,0,20.9,
1526,SBT4050,1,4,4.180598,0,0,20.9,
1526,SBT4050,1,4,4.180546,0,0,20.9,
1526,SBT4050,1,4,4.18063,0,0,20.9,
1526,SBT4050,1,4,4.18017,0,0,20.9,
1526,SBT4050,1,4,4.18019,0,0,20.9,
1526,SBT4050,1,4,4.17992,0,0,20.9,
1526,SBT4050,1,4,4.17977,0,0,20.9,
1526,SBT4050,1,4,4.17977,0,0,20.9,
1526,SBT4050,1,4,4.17989,0,0,20.9,
1526,SBT4050,1,4,4.17951,0,0,20.9,
1526,SBT4050,1,4,4.17943,0,0,20.9,
1526,SBT4050,1,4,4.17955,0,0,20.9,
1526,SBT4050,1,4,4.17941,0,0,20.9,
1526,SBT4050,1,4,4.179312,0,0,20.9,
1526,SBT4050,1,4,4.17919,0,0,20.9,
1526,SBT4050,1,4,4.17913,0,0,20.9,
1526,SBT4050,1,4,4.17879,0,0,20.9,
1526,SBT4050,1,4,4.17889,0,0,20.9,
1526,SBT4050,1,4,4.17867,0,0,20.9,
1526,SBT4050,1,4,4.17845,0,0,20.9,
1526,SBT4050,1,4,4.178684,0,0,20.9,
1526,SBT4050,1,4,4.178506,0,0,20.9,
1526,SBT4050,1,4,4.17847,0,0,20.9,
1526,SBT4050,1,4,4.178356,0,0,20.9,
1526,SBT4050,1,4,4.17839,0,0,20.9,
1526,SBT4050,1,4,4.1782,0,0,20.9,
1526,SBT4050,1,4,4.17813,0,0,20.9,
1526,SBT4050,1,4,4.17791,0,0,20.9,
1526,SBT4050,1,4,4.178452,0,0,20.9,
1526,SBT4050,1,4,4.17806,0,0,20.9,
1526,SBT4050,1,4,4.177922,0,0,20.9,
1526,SBT4050,1,4,4.17796,0,0,20.9,
1526,SBT4050,1,4,4.17785,0,0,20.9,
1526,SBT4050,1,4,4.17765,0,0,20.9,
1526,SBT4050,1,4,4.17769,0,0,20.9,
1526,SBT4050,1,4,4.17746,0,0,20.9,
1526,SBT4050,1,4,4.177438,0,0,20.9,
1526,SBT4050,1,4,4.17722,0,0,20.9,
1526,SBT4050,1,4,4.176918,0,0,20.9,
1526,SBT4050,1,4,4.17751,0,0,20.9,
1526,SBT4050,1,4,4.17697,0,0,20.9,
1526,SBT4050,1,4,4.17701,0,0,20.9,
1526,SBT4050,1,4,4.17697,0,0,20.9,
1526,SBT4050,1,4,4.176798,0,0,20.9,
1526,SBT4050,1,4,4.176652,0,0,20.9,
1526,SBT4050,1,4,4.17692,0,0,20.9,
1526,SBT4050,1,4,4.17712,0,0,20.9,
1526,SBT4050,1,4,4.17665,0,0,20.9,
1526,SBT4050,1,4,4.1768,0,0,20.9,
1526,SBT4050,1,4,4.176524,0,0,20.9,
1526,SBT4050,1,4,4.17671,0,0,20.9,
1526,SBT4050,1,4,4.17628,0,0,20.9,
1526,SBT4050,1,4,4.17602,0,0,20.9,
1526,SBT4050,1,4,4.17628,0,0,20.9,
1526,SBT4050,1,4,4.176,0,0,20.9,
1526,SBT4050,1,4,4.1761,0,0,20.9,
1526,SBT4050,1,4,4.176,0,0,20.9,
1526,SBT4050,1,4,4.175686,0,0,20.9,
1526,SBT4050,1,4,4.17573,0,0,20.9,
1526,SBT4050,1,4,4.17559,0,0,20.9,
1526,SBT4050,1,4,4.175576,0,0,20.9,
1526,SBT4050,1,4,4.17543,0,0,20.9,
1526,SBT4050,1,4,4.17526,0,0,20.9,
1526,SBT4050,1,4,4.174992,0,0,20.9,
1526,SBT4050,1,4,4.17497,0,0,20.9,
1526,SBT4050,1,4,4.17481,0,0,20.9,
1526,SBT4050,1,4,4.17513,0,0,20.9,
1526,SBT4050,1,4,4.17488,0,0,20.9,
1526,SBT4050,1,4,4.174922,0,0,20.9,
1526,SBT4050,1,4,4.174674,0,0,20.9,
1526,SBT4050,1,4,4.17489,0,0,20.9,
1526,SBT4050,1,4,4.17479,0,0,20.9,
1526,SBT4050,1,4,4.175016,0,0,20.9,
1526,SBT4050,1,4,4.17449,0,0,20.9,
1526,SBT4050,1,4,4.17466,0,0,20.9,
1526,SBT4050,1,4,4.17422,0,0,20.9,
1526,SBT4050,1,4,4.17438,0,0,20.9,
1526,SBT4050,1,4,4.17417,0,0,20.9,
1526,SBT4050,1,4,4.17389,0,0,20.9,
1526,SBT4050,1,4,4.17405,0,0,20.9,
1526,SBT4050,1,4,4.174196,0,0,20.9,
1526,SBT4050,1,4,4.17402,0,0,20.9,
1526,SBT4050,1,4,4.17415,0,0,20.9,
1526,SBT4050,1,4,4.17386,0,0,20.9,
1526,SBT4050,1,4,4.17398,0,0,21,
1526,SBT4050,1,4,4.173946,0,0,20.9,
1526,SBT4050,1,4,4.17387,0,0,20.9,
1526,SBT4050,1,4,4.17388,0,0,20.9,
1526,SBT4050,1,4,4.17365,0,0,20.9,
1526,SBT4050,1,4,4.17375,0,0,20.9,
1526,SBT4050,1,4,4.1738,0,0,20.9,
1526,SBT4050,1,4,4.17334,0,0,20.9,
1526,SBT4050,1,4,4.173352,0,0,20.9,
1526,SBT4050,1,4,4.173462,0,0,20.9,
1526,SBT4050,1,4,4.173728,0,0,20.9,
1526,SBT4050,1,4,4.1736,0,0,20.9,
1526,SBT4050,1,4,4.17332,0,0,20.9,
1526,SBT4050,1,4,4.17336,0,0,20.9,
1526,SBT4050,1,4,4.17315,0,0,20.9,
1526,SBT4050,1,4,4.173228,0,0,20.9,
1526,SBT4050,1,4,4.17299,0,0,20.9,
1526,SBT4050,1,4,4.17306,0,0,20.9,
1526,SBT4050,1,4,4.17273,0,0,20.9,
1526,SBT4050,1,4,4.17281,0,0,20.9,
1526,SBT4050,1,4,4.17252,0,0,20.9,
1526,SBT4050,1,4,4.1723,0,0,20.9,
1526,SBT4050,1,4,4.172316,0,0,20.9,
1526,SBT4050,1,4,4.17221,0,0,20.9,
1526,SBT4050,1,4,4.17242,0,0,20.9,
1526,SBT4050,1,4,4.17227,0,0,20.9,
1526,SBT4050,1,4,4.172328,0,0,20.9,
1526,SBT4050,1,4,4.172,0,0,20.9,
1526,SBT4050,1,4,4.17234,0,0,20.9,
1526,SBT4050,1,4,4.172388,0,0,20.9,
1526,SBT4050,1,4,4.17205,0,0,20.9,
1526,SBT4050,1,4,4.17204,0,0,20.9,
1526,SBT4050,1,4,4.17194,0,0,20.9,
1526,SBT4050,1,4,4.17212,0,0,20.9,
1526,SBT4050,1,4,4.17217,0,0,20.9,
1526,SBT4050,1,4,4.17198,0,0,20.9,
1526,SBT4050,1,4,4.17215,0,0,20.9,
1526,SBT4050,1,4,4.17201,0,0,20.9,
1526,SBT4050,1,4,4.17199,0,0,20.9,
1526,SBT4050,1,4,4.17193,0,0,20.9,
1526,SBT4050,1,4,4.17177,0,0,20.9,
1526,SBT4050,1,4,4.17162,0,0,20.9,
1526,SBT4050,1,4,4.17177,0,0,20.9,
1526,SBT4050,1,4,4.1716,0,0,20.9,
1526,SBT4050,1,4,4.17163,0,0,20.9,
1526,SBT4050,1,4,4.17113,0,0,20.9,
1526,SBT4050,1,4,4.17093,0,0,20.9,
1526,SBT4050,1,4,4.1714,0,0,20.9,
1526,SBT4050,1,4,4.17131,0,0,20.9,
1526,SBT4050,1,4,4.171194,0,0,20.9,
1526,SBT4050,1,4,4.17112,0,0,20.9,
1526,SBT4050,1,4,4.17126,0,0,20.9,
1526,SBT4050,1,4,4.171254,0,0,20.9,
1526,SBT4050,1,4,4.17131,0,0,20.9,
1526,SBT4050,1,4,4.17112,0,0,20.9,
1526,SBT4050,1,4,4.171294,0,0,20.9,
1526,SBT4050,1,4,4.1708,0,0,20.9,
1526,SBT4050,1,4,4.17096,0,0,20.9,
1526,SBT4050,1,4,4.170704,0,0,20.9,
1526,SBT4050,1,4,4.17084,0,0,20.9,
1526,SBT4050,1,4,4.17048,0,0,20.9,
1526,SBT4050,1,4,4.170732,0,0,20.9,
1526,SBT4050,1,4,4.170864,0,0,20.9,
1526,SBT4050,1,4,4.17056,0,0,20.9,
1526,SBT4050,1,4,4.17065,0,0,20.9,
1526,SBT4050,1,4,4.17033,0,0,20.9,
1526,SBT4050,1,4,4.17033,0,0,20.9,
1526,SBT4050,1,4,4.17051,0,0,20.9,
1526,SBT4050,1,4,4.17021,0,0,20.9,
1526,SBT4050,1,4,4.17002,0,0,20.9,
1526,SBT4050,1,4,4.17009,0,0,20.9,
1526,SBT4050,1,4,4.16998,0,0,20.9,
1526,SBT4050,1,4,4.17016,0,0,20.9,
1526,SBT4050,1,4,4.17,0,0,20.9,
1526,SBT4050,1,4,4.16985,0,0,20.9,
1526,SBT4050,1,4,4.16996,0,0,21,
1526,SBT4050,1,4,4.16985,0,0,20.9,
1526,SBT4050,1,4,4.16978,0,0,20.9,
1526,SBT4050,1,4,4.17018,0,0,20.9,
1526,SBT4050,1,4,4.16997,0,0,20.9,
1526,SBT4050,1,4,4.16978,0,0,20.9,
1526,SBT4050,1,4,4.16956,0,0,20.9,
1526,SBT4050,1,4,4.17005,0,0,20.9,
1526,SBT4050,1,4,4.17007,0,0,20.9,
1526,SBT4050,1,4,4.16987,0,0,20.9,
1526,SBT4050,1,4,4.1699,0,0,20.9,
1526,SBT4050,1,4,4.16959,0,0,21,
1526,SBT4050,1,4,4.16978,0,0,20.9,
1526,SBT4050,1,4,4.16965,0,0,20.9,
1526,SBT4050,1,4,4.1696,0,0,20.9,
1526,SBT4050,1,4,4.16961,0,0,20.9,
1526,SBT4050,1,4,4.16939,0,0,21,
1526,SBT4050,1,4,4.16928,0,0,20.9,
1526,SBT4050,1,4,4.1696,0,0,20.9,
1526,SBT4050,1,4,4.16951,0,0,21,
1526,SBT4050,1,4,4.16945,0,0,20.9,
1526,SBT4050,1,4,4.1694,0,0,20.9,
1526,SBT4050,1,4,4.16905,0,0,20.9,
1526,SBT4050,1,4,4.1691,0,0,20.9,
1526,SBT4050,1,4,4.16876,0,0,20.9,
1526,SBT4050,1,4,4.16868,0,0,20.9,
1526,SBT4050,1,4,4.16878,0,0,20.9,
1526,SBT4050,1,4,4.16857,0,0,20.9,
1526,SBT4050,1,4,4.16896,0,0,20.9,
1526,SBT4050,1,4,4.168826,0,0,20.9,
1526,SBT4050,1,4,4.16876,0,0,20.9,
1526,SBT4050,1,4,4.16852,0,0,20.9,
1526,SBT4050,1,4,4.16838,0,0,20.9,
1526,SBT4050,1,4,4.16834,0,0,20.9,
1526,SBT4050,1,4,4.16871,0,0,20.9,
1526,SBT4050,1,4,4.16866,0,0,20.9,
1526,SBT4050,1,4,4.16859,0,0,20.9,
1526,SBT4050,1,4,4.168566,0,0,21,
1526,SBT4050,1,4,4.16852,0,0,21,
1526,SBT4050,1,4,4.16839,0,0,21,
1526,SBT4050,1,4,4.168414,0,0,20.9,
1526,SBT4050,1,4,4.16837,0,0,20.9,
1526,SBT4050,1,4,4.16824,0,0,20.9,
1526,SBT4050,1,4,4.16841,0,0,20.9,
1526,SBT4050,1,4,4.16815,0,0,20.9,
1526,SBT4050,1,4,4.16813,0,0,20.9,
1526,SBT4050,1,4,4.16804,0,0,21,
1526,SBT4050,1,4,4.16811,0,0,21,
1526,SBT4050,1,4,4.16816,0,0,20.9,
1526,SBT4050,1,4,4.16786,0,0,20.9,
1526,SBT4050,1,4,4.168016,0,0,21,
1526,SBT4050,1,4,4.167862,0,0,20.9,
1526,SBT4050,1,4,4.16784,0,0,21,
1526,SBT4050,1,4,4.167602,0,0,21,
1526,SBT4050,1,4,4.16781,0,0,20.9,
1526,SBT4050,1,4,4.16786,0,0,20.9,
1526,SBT4050,1,4,4.1677,0,0,21,
1526,SBT4050,1,4,4.16792,0,0,20.9,
1526,SBT4050,1,4,4.16766,0,0,20.9,
1526,SBT4050,1,4,4.16776,0,0,20.9,
1526,SBT4050,1,4,4.16768,0,0,20.9,
1526,SBT4050,1,4,4.16764,0,0,20.9,
1526,SBT4050,1,4,4.1675,0,0,20.9,
1526,SBT4050,1,4,4.16732,0,0,21,
1526,SBT4050,1,4,4.16735,0,0,20.9,
1526,SBT4050,1,4,4.16752,0,0,20.9,
1526,SBT4050,1,4,4.16725,0,0,21,
1526,SBT4050,1,4,4.16742,0,0,20.9,
1526,SBT4050,1,4,4.16741,0,0,20.9,
1526,SBT4050,1,4,4.16752,0,0,20.9,
1526,SBT4050,1,4,4.16754,0,0,21,
1526,SBT4050,1,4,4.16745,0,0,21,
1526,SBT4050,1,4,4.1675,0,0,21,
1526,SBT4050,1,4,4.16712,0,0,21,
1526,SBT4050,1,4,4.16724,0,0,21,
1526,SBT4050,1,4,4.16707,0,0,20.9,
1526,SBT4050,1,4,4.166996,0,0,20.9,
1526,SBT4050,1,4,4.16689,0,0,20.9,
1526,SBT4050,1,4,4.16724,0,0,20.9,
1526,SBT4050,1,4,4.16702,0,0,20.9,
1526,SBT4050,1,4,4.16691,0,0,20.9,
1526,SBT4050,1,4,4.16701,0,0,20.9,
1526,SBT4050,1,4,4.16723,0,0,20.9,
1526,SBT4050,1,4,4.16686,0,0,20.9,
1526,SBT4050,1,4,4.16672,0,0,21,
1526,SBT4050,1,4,4.16695,0,0,20.9,
1526,SBT4050,1,4,4.16689,0,0,20.9,
1526,SBT4050,1,4,4.166934,0,0,20.9,
1526,SBT4050,1,4,4.16681,0,0,20.9,
1526,SBT4050,1,4,4.16684,0,0,20.9,
1526,SBT4050,1,4,4.1666,0,0,20.9,
1526,SBT4050,1,4,4.1668,0,0,20.9,
1526,SBT4050,1,4,4.1668,0,0,20.9,
1526,SBT4050,1,4,4.166738,0,0,20.9,
1526,SBT4050,1,4,4.16665,0,0,20.9,
1526,SBT4050,1,4,4.16647,0,0,20.9,
1526,SBT4050,1,4,4.166394,0,0,20.9,
1526,SBT4050,1,4,4.16634,0,0,20.9,
1526,SBT4050,1,4,4.16626,0,0,20.9,
1526,SBT4050,1,4,4.16612,0,0,20.9,
1526,SBT4050,1,4,4.1663,0,0,20.9,
1526,SBT4050,1,4,4.16606,0,0,20.9,
1526,SBT4050,1,4,4.16612,0,0,20.9,
1526,SBT4050,1,4,4.1661,0,0,20.9,
1526,SBT4050,1,4,4.16618,0,0,20.9,
1526,SBT4050,1,4,4.16607,0,0,20.9,
1526,SBT4050,1,4,4.166456,0,0,20.9,
1526,SBT4050,1,4,4.16597,0,0,20.9,
1526,SBT4050,1,4,4.16611,0,0,20.9,
1526,SBT4050,1,4,4.1662,0,0,20.9,
1526,SBT4050,1,4,4.1662,0,0,20.9,
1526,SBT4050,1,4,4.166298,0,0,20.9,
1526,SBT4050,1,4,4.166054,0,0,20.9,
1526,SBT4050,1,4,4.16616,0,0,20.9,
1526,SBT4050,1,4,4.16585,0,0,20.9,
1526,SBT4050,1,4,4.166074,0,0,20.9,
1526,SBT4050,1,4,4.165834,0,0,20.9,
1526,SBT4050,1,4,4.166126,0,0,20.9,
1526,SBT4050,1,4,4.16597,0,0,20.9,
1526,SBT4050,1,4,4.165942,0,0,20.9,
1526,SBT4050,1,4,4.165836,0,0,20.9,
1526,SBT4050,1,4,4.16595,0,0,20.8,
1526,SBT4050,1,4,4.165696,0,0,20.9,
1526,SBT4050,1,4,4.1657,0,0,20.9,
1526,SBT4050,1,4,4.1656,0,0,20.9,
1526,SBT4050,1,4,4.165376,0,0,20.8,
1526,SBT4050,1,4,4.16561,0,0,20.9,
1526,SBT4050,1,4,4.16581,0,0,20.8,
1526,SBT4050,1,4,4.16556,0,0,20.9,
1526,SBT4050,1,4,4.16558,0,0,20.9,
1526,SBT4050,1,4,4.16554,0,0,20.9,
1526,SBT4050,1,4,4.1656,0,0,20.9,
1526,SBT4050,1,4,4.16558,0,0,20.8,
1526,SBT4050,1,4,4.1656,0,0,20.9,
1526,SBT4050,1,4,4.16553,0,0,20.9,
1526,SBT4050,1,4,4.16554,0,0,20.9,
1526,SBT4050,1,4,4.165608,0,0,20.8,
1526,SBT4050,1,4,4.165036,0,0,20.8,
1526,SBT4050,1,4,4.16526,0,0,20.9,
1526,SBT4050,1,4,4.165162,0,0,20.8,
1526,SBT4050,1,4,4.165286,0,0,20.9,
1526,SBT4050,1,4,4.16501,0,0,20.9,
1526,SBT4050,1,4,4.16535,0,0,20.9,
1526,SBT4050,1,4,4.16522,0,0,20.9,
1526,SBT4050,1,4,4.16512,0,0,20.9,
1526,SBT4050,1,4,4.1651,0,0,20.9,
1526,SBT4050,1,4,4.16502,0,0,20.9,
1526,SBT4050,1,4,4.165,0,0,20.8,
1526,SBT4050,1,4,4.16508,0,0,20.9,
1526,SBT4050,1,4,4.16503,0,0,20.9,
1526,SBT4050,1,4,4.165206,0,0,20.9,
1526,SBT4050,1,4,4.165,0,0,20.8,
1526,SBT4050,1,4,4.16507,0,0,20.9,
1526,SBT4050,1,4,4.16495,0,0,20.8,
1526,SBT4050,1,4,4.16489,0,0,20.8,
1526,SBT4050,1,4,4.16504,0,0,20.8,
1526,SBT4050,1,4,4.16491,0,0,20.9,
1526,SBT4050,1,4,4.1649,0,0,20.8,
1526,SBT4050,1,4,4.16489,0,0,20.9,
1526,SBT4050,1,4,4.16477,0,0,20.8,
1526,SBT4050,1,4,4.16487,0,0,20.9,
1526,SBT4050,1,4,4.16452,0,0,20.8,
1526,SBT4050,1,4,4.16485,0,0,20.9,
1526,SBT4050,1,4,4.16458,0,0,20.8,
1526,SBT4050,1,4,4.16482,0,0,20.9,
1526,SBT4050,1,4,4.16463,0,0,20.8,
1526,SBT4050,1,4,4.16463,0,0,20.8,
1526,SBT4050,1,4,4.16449,0,0,20.8,
1526,SBT4050,1,4,4.16444,0,0,20.9,
1526,SBT4050,1,4,4.16443,0,0,20.9,
1526,SBT4050,1,4,4.16476,0,0,20.8,
1526,SBT4050,1,4,4.16443,0,0,20.8,
1526,SBT4050,1,4,4.164468,0,0,20.9,
1526,SBT4050,1,4,4.16452,0,0,20.8,
1526,SBT4050,1,4,4.16453,0,0,20.8,
1526,SBT4050,1,4,4.164564,0,0,20.8,
1526,SBT4050,1,4,4.16467,0,0,20.9,
1526,SBT4050,1,4,4.164504,0,0,20.8,
1526,SBT4050,1,4,4.16451,0,0,20.8,
1526,SBT4050,1,4,4.16433,0,0,20.8,
1526,SBT4050,1,4,4.16433,0,0,20.8,
1526,SBT4050,1,4,4.16438,0,0,20.8,
1526,SBT4050,1,4,4.16443,0,0,20.8,
1526,SBT4050,1,4,4.164298,0,0,20.8,
1526,SBT4050,1,4,4.16438,0,0,20.8,
1526,SBT4050,1,4,4.16446,0,0,20.9,
1526,SBT4050,1,4,4.164192,0,0,20.8,
1526,SBT4050,1,4,4.1644,0,0,20.8,
1526,SBT4050,1,4,4.164134,0,0,20.8,
1526,SBT4050,1,4,4.164312,0,0,20.8,
1526,SBT4050,1,4,4.164332,0,0,20.8,
1526,SBT4050,1,4,4.16418,0,0,20.8,
1526,SBT4050,1,4,4.16432,0,0,20.8,
1526,SBT4050,1,4,4.164354,0,0,20.8,
1526,SBT4050,1,4,4.164026,0,0,20.8,
1526,SBT4050,1,4,4.16395,0,0,20.9,
1526,SBT4050,1,4,4.16374,0,0,20.8,
1526,SBT4050,1,4,4.16394,0,0,20.8,
1526,SBT4050,1,4,4.16373,0,0,20.8,
1526,SBT4050,1,4,4.16348,0,0,20.8,
1526,SBT4050,1,4,4.16388,0,0,20.8,
1526,SBT4050,1,4,4.1638,0,0,20.8,
1526,SBT4050,1,4,4.1637,0,0,20.8,
1526,SBT4050,1,4,4.16387,0,0,20.8,
1526,SBT4050,1,4,4.16388,0,0,20.8,
1526,SBT4050,1,4,4.16393,0,0,20.8,
1526,SBT4050,1,4,4.16378,-2.6E-05,0,20.8,
1526,SBT4050,1,4,3.85295,-10,19.068,20.8,
1526,SBT4050,1,4,3.80995,-10,41.289,20.9,
1526,SBT4050,1,4,3.778758,-10,63.511,21.1,
1526,SBT4050,1,4,3.75414,-9.998,85.732,21.4,
1526,SBT4050,1,4,3.73379,-10,107.952,21.7,
1526,SBT4050,1,4,3.71725,-10,130.173,21.9,
1526,SBT4050,1,4,3.70267,-10,152.394,22.2,
1526,SBT4050,1,4,3.69074,-10.002,174.615,22.5,
1526,SBT4050,1,4,3.67983,-9.998,196.836,22.7,
1526,SBT4050,1,4,3.67008,-10,219.057,22.9,
1526,SBT4050,1,4,3.66123,-10,241.278,23.2,
1526,SBT4050,1,4,3.65242,-9.998,263.5,23.4,
1526,SBT4050,1,4,3.64458,-10,285.721,23.6,
1526,SBT4050,1,4,3.63659,-10,307.943,23.8,
1526,SBT4050,1,4,3.6286,-10,330.164,24.1,
1526,SBT4050,1,4,3.6207,-9.998,352.385,24.3,
1526,SBT4050,1,4,3.613,-10,374.606,24.5,
1526,SBT4050,1,4,3.60538,-9.999,396.828,24.6,
1526,SBT4050,1,4,3.59767,-10,419.049,24.8,
1526,SBT4050,1,4,3.58988,-10,441.27,25,
1526,SBT4050,1,4,3.58211,-10,463.491,25.1,
1526,SBT4050,1,4,3.57405,-10,485.712,25.2,
1526,SBT4050,1,4,3.56602,-10.002,507.934,25.4,
1526,SBT4050,1,4,3.55926,-9.998,530.155,25.6,
1526,SBT4050,1,4,3.55138,-10,552.376,25.7,
1526,SBT4050,1,4,3.543258,-10,574.597,25.9,
1526,SBT4050,1,4,3.53506,-10,596.819,26,
1526,SBT4050,1,4,3.527036,-10,619.04,26.1,
1526,SBT4050,1,4,3.51899,-10,641.261,26.2,
1526,SBT4050,1,4,3.51094,-10,663.482,26.3,
1526,SBT4050,1,4,3.50312,-10.001,685.703,26.4,
1526,SBT4050,1,4,3.49527,-10.001,707.924,26.6,
1526,SBT4050,1,4,3.48716,-9.999,730.146,26.6,
1526,SBT4050,1,4,3.479452,-10,752.367,26.7,
1526,SBT4050,1,4,3.47155,-10,774.588,26.8,
1526,SBT4050,1,4,3.46371,-10.001,796.809,26.8,
1526,SBT4050,1,4,3.45574,-10.001,819.03,26.9,
1526,SBT4050,1,4,3.44779,-10.001,841.251,27,
1526,SBT4050,1,4,3.44002,-9.997,863.472,27.1,
1526,SBT4050,1,4,3.43227,-9.997,885.693,27.1,
1526,SBT4050,1,4,3.42467,-10.001,907.914,27.2,
1526,SBT4050,1,4,3.417154,-10,930.135,27.3,
1526,SBT4050,1,4,3.40993,-10.001,952.356,27.5,
1526,SBT4050,1,4,3.40234,-10.001,974.577,27.5,
1526,SBT4050,1,4,3.39507,-10,996.798,27.5,
1526,SBT4050,1,4,3.38772,-9.999,1019.02,27.6,
1526,SBT4050,1,4,3.38059,-10.001,1041.241,27.6,
1526,SBT4050,1,4,3.37337,-10.001,1063.462,27.7,
1526,SBT4050,1,4,3.36634,-10.001,1085.683,27.8,
1526,SBT4050,1,4,3.35924,-9.999,1107.905,27.8,
1526,SBT4050,1,4,3.35222,-10,1130.126,27.9,
1526,SBT4050,1,4,3.3453,-10,1152.347,27.9,
1526,SBT4050,1,4,3.338154,-10,1174.568,27.8,
1526,SBT4050,1,4,3.33143,-10,1196.79,27.9,
1526,SBT4050,1,4,3.324358,-10,1219.011,28,
1526,SBT4050,1,4,3.317609,-10,1241.232,28,
1526,SBT4050,1,4,3.31054,-9.998,1263.453,28.1,
1526,SBT4050,1,4,3.30373,-10,1285.674,28.1,
1526,SBT4050,1,4,3.29644,-9.998,1307.895,28.2,
1526,SBT4050,1,4,3.28932,-10,1330.116,28.3,
1526,SBT4050,1,4,3.28211,-9.999,1352.337,28.3,
1526,SBT4050,1,4,3.274936,-10,1374.558,28.3,
1526,SBT4050,1,4,3.26767,-9.999,1396.779,28.3,
1526,SBT4050,1,4,3.259987,-9.999,1419,28.3,
1526,SBT4050,1,4,3.25285,-10,1441.221,28.4,
1526,SBT4050,1,4,3.2451,-9.999,1463.442,28.5,
1526,SBT4050,1,4,3.23721,-10,1485.663,28.5,
1526,SBT4050,1,4,3.22942,-10,1507.884,28.5,
1526,SBT4050,1,4,3.22135,-9.998,1530.104,28.5,
1526,SBT4050,1,4,3.21337,-10.001,1552.325,28.5,
1526,SBT4050,1,4,3.20527,-10,1574.546,28.7,
1526,SBT4050,1,4,3.196805,-10,1596.767,28.7,
1526,SBT4050,1,4,3.18803,-10,1618.987,28.7,
1526,SBT4050,1,4,3.179146,-10.002,1641.208,28.7,
1526,SBT4050,1,4,3.16994,-9.999,1663.429,28.9,
1526,SBT4050,1,4,3.16091,-9.998,1685.65,28.9,
1526,SBT4050,1,4,3.15109,-10,1707.872,29,
1526,SBT4050,1,4,3.14121,-9.999,1730.093,29.1,
1526,SBT4050,1,4,3.13097,-9.999,1752.315,29.1,
1526,SBT4050,1,4,3.11961,-10.001,1774.536,29.1,
1526,SBT4050,1,4,3.108718,-9.999,1796.757,29.1,
1526,SBT4050,1,4,3.096906,-9.999,1818.979,29.3,
1526,SBT4050,1,4,3.08451,-9.999,1841.2,29.3,
1526,SBT4050,1,4,3.07131,-9.999,1863.421,29.5,
1526,SBT4050,1,4,3.05765,-10,1885.642,29.6,
1526,SBT4050,1,4,3.04261,-10,1907.863,29.6,
1526,SBT4050,1,4,3.02686,-10,1930.085,29.6,
1526,SBT4050,1,4,3.00944,-10,1952.306,29.7,
1526,SBT4050,1,4,2.99049,-10,1974.527,29.7,
1526,SBT4050,1,4,2.96942,-9.999,1996.748,29.9,
1526,SBT4050,1,4,2.9466,-10,2018.969,30,
1526,SBT4050,1,4,2.92075,-10,2041.19,30.2,
1526,SBT4050,1,4,2.89194,-9.999,2063.411,30.3,
1526,SBT4050,1,4,2.85941,-10,2085.633,30.4,
1526,SBT4050,1,4,2.82326,-9.999,2107.854,30.5,
1526,SBT4050,1,4,2.78238,-10.002,2130.075,30.7,
1526,SBT4050,1,4,2.736638,-9.999,2152.296,30.8,
1526,SBT4050,1,4,2.68503,-9.999,2174.517,31.1,
1526,SBT4050,1,4,2.62659,-10.001,2196.738,31.3,
1526,SBT4050,1,4,2.55961,-9.998,2218.96,31.6,
1526,SBT4050,1,4,2.88313,0,2236.134,31.7,
1526,SBT4050,1,4,3.01675,0,2236.134,31.8,
1526,SBT4050,1,4,3.05682,0,2236.134,31.6,
1526,SBT4050,1,4,3.07816,0,2236.134,31.3,
1526,SBT4050,1,4,3.09145,0,2236.134,31,
1526,SBT4050,1,4,3.10067,0,2236.134,30.7,
1526,SBT4050,1,4,3.10758,0,2236.134,30.2,
1526,SBT4050,1,4,3.11289,0,2236.134,29.8,
1526,SBT4050,1,4,3.11703,0,2236.134,29.3,
1526,SBT4050,1,4,3.12086,0,2236.134,28.9,
1526,SBT4050,1,4,3.12403,0,2236.134,28.5,
1526,SBT4050,1,4,3.12657,0,2236.134,28.3,
1526,SBT4050,1,4,3.12912,0,2236.134,27.9,
1526,SBT4050,1,4,3.131245,0,2236.134,27.6,
1526,SBT4050,1,4,3.132958,0,2236.134,27.2,
1526,SBT4050,1,4,3.13477,0,2236.134,26.9,
1526,SBT4050,1,4,3.13655,0,2236.134,26.6,
1526,SBT4050,1,4,3.13801,0,2236.134,26.4,
1526,SBT4050,1,4,3.139459,0,2236.134,26,
1526,SBT4050,1,4,3.1406,0,2236.134,25.8,
1526,SBT4050,1,4,3.14184,0,2236.134,25.6,
1526,SBT4050,1,4,3.14287,0,2236.134,25.5,
1526,SBT4050,1,4,3.143952,0,2236.134,25.3,
1526,SBT4050,1,4,3.14472,0,2236.134,25.1,
1526,SBT4050,1,4,3.145646,0,2236.134,24.8,
1526,SBT4050,1,4,3.146647,0,2236.134,24.6,
1526,SBT4050,1,4,3.14727,0,2236.134,24.5,
1526,SBT4050,1,4,3.1482,0,2236.134,24.3,
1526,SBT4050,1,4,3.14894,0,2236.134,24.1,
1526,SBT4050,1,4,3.14963,0,2236.134,24,
1526,SBT4050,1,4,3.150244,0,2236.134,23.9,
1526,SBT4050,1,4,3.15093,0,2236.134,23.8,
1526,SBT4050,1,4,3.15168,0,2236.134,23.6,
1526,SBT4050,1,4,3.15219,0,2236.134,23.5,
1526,SBT4050,1,4,3.15277,0,2236.134,23.4,
1526,SBT4050,1,4,3.15325,0,2236.134,23.3,
1526,SBT4050,1,4,3.15408,0,2236.134,23.1,
1526,SBT4050,1,4,3.15438,0,2236.134,23.1,
1526,SBT4050,1,4,3.15499,0,2236.134,23,
1526,SBT4050,1,4,3.1554,0,2236.134,22.9,
1526,SBT4050,1,4,3.155859,0,2236.134,22.8,
1526,SBT4050,1,4,3.156445,0,2236.134,22.7,
1526,SBT4050,1,4,3.15686,0,2236.134,22.6,
1526,SBT4050,1,4,3.15718,0,2236.134,22.6,
1526,SBT4050,1,4,3.157711,0,2236.134,22.5,
1526,SBT4050,1,4,3.15816,0,2236.134,22.4,
1526,SBT4050,1,4,3.1583,0,2236.134,22.3,
1526,SBT4050,1,4,3.15871,0,2236.134,22.3,
1526,SBT4050,1,4,3.159155,0,2236.134,22.2,
1526,SBT4050,1,4,3.15943,0,2236.134,22.2,
1526,SBT4050,1,4,3.15995,0,2236.134,22.2,
1526,SBT4050,1,4,3.16011,0,2236.134,22.1,
1526,SBT4050,1,4,3.16041,0,2236.134,22,
1526,SBT4050,1,4,3.16078,0,2236.134,22,
1526,SBT4050,1,4,3.161015,0,2236.134,21.9,
1526,SBT4050,1,4,3.16162,0,2236.134,21.9,
1526,SBT4050,1,4,3.16172,0,2236.134,21.9,
1526,SBT4050,1,4,3.162029,0,2236.134,21.8,
1526,SBT4050,1,4,3.16256,0,2236.134,21.8,
1526,SBT4050,1,4,3.16259,0,2236.134,21.8,
1526,SBT4050,1,4,3.162941,0,2236.134,21.7,
1526,SBT4050,1,4,3.16327,0,2236.134,21.7,
1526,SBT4050,1,4,3.16365,0,2236.134,21.7,
1526,SBT4050,1,4,3.16391,0,2236.134,21.6,
1526,SBT4050,1,4,3.16422,0,2236.134,21.6,
1526,SBT4050,1,4,3.16424,0,2236.134,21.6,
1526,SBT4050,1,4,3.164676,0,2236.134,21.5,
1526,SBT4050,1,4,3.16474,0,2236.134,21.5,
1526,SBT4050,1,4,3.16521,0,2236.134,21.5,
1526,SBT4050,1,4,3.165209,0,2236.134,21.5,
1526,SBT4050,1,4,3.1656,0,2236.134,21.5,
1526,SBT4050,1,4,3.16602,0,2236.134,21.4,
1526,SBT4050,1,4,3.16621,0,2236.134,21.4,
1526,SBT4050,1,4,3.16645,0,2236.134,21.4,
1526,SBT4050,1,4,3.16647,0,2236.134,21.4,
1526,SBT4050,1,4,3.16683,0,2236.134,21.4,
1526,SBT4050,1,4,3.16711,0,2236.134,21.3,
1526,SBT4050,1,4,3.167028,0,2236.134,21.3,
1526,SBT4050,1,4,3.16733,0,2236.134,21.3,
1526,SBT4050,1,4,3.16756,0,2236.134,21.3,
1526,SBT4050,1,4,3.16783,0,2236.134,21.3,
1526,SBT4050,1,4,3.168099,0,2236.134,21.3,
1526,SBT4050,1,4,3.16846,0,2236.134,21.3,
1526,SBT4050,1,4,3.16867,0,2236.134,21.2,
1526,SBT4050,1,4,3.16899,0,2236.134,21.2,
1526,SBT4050,1,4,3.16925,0,2236.134,21.2,
1526,SBT4050,1,4,3.16934,0,2236.134,21.3,
1526,SBT4050,1,4,3.16932,0,2236.134,21.2,
1526,SBT4050,1,4,3.16952,0,2236.134,21.2,
1526,SBT4050,1,4,3.16962,0,2236.134,21.2,
1526,SBT4050,1,4,3.17004,0,2236.134,21.2,
1526,SBT4050,1,4,3.17002,0,2236.134,21.2,
1526,SBT4050,1,4,3.17019,0,2236.134,21.2,
1526,SBT4050,1,4,3.170481,0,2236.134,21.2,
1526,SBT4050,1,4,3.17066,0,2236.134,21.1,
1526,SBT4050,1,4,3.17093,0,2236.134,21.1,
1526,SBT4050,1,4,3.17103,0,2236.134,21.1,
1526,SBT4050,1,4,3.17107,0,2236.134,21.1,
1526,SBT4050,1,4,3.17125,0,2236.134,21.1,
1526,SBT4050,1,4,3.17163,0,2236.134,21.1,
1526,SBT4050,1,4,3.17152,0,2236.134,21.1,
1526,SBT4050,1,4,3.17166,0,2236.134,21.1,
1526,SBT4050,1,4,3.171956,0,2236.134,21.1,
1526,SBT4050,1,4,3.17215,0,2236.134,21.1,
1526,SBT4050,1,4,3.17236,0,2236.134,21.1,
1526,SBT4050,1,4,3.172763,0,2236.134,21.1,
1526,SBT4050,1,4,3.17273,0,2236.134,21.1,
1526,SBT4050,1,4,3.17271,0,2236.134,21.1,
1526,SBT4050,1,4,3.17313,0,2236.134,21.1,
1526,SBT4050,1,4,3.17344,0,2236.134,21.1,
1526,SBT4050,1,4,3.17339,0,2236.134,21.1,
1526,SBT4050,1,4,3.17355,0,2236.134,21.1,
1526,SBT4050,1,4,3.17382,0,2236.134,21.1,
1526,SBT4050,1,4,3.36219,4.0001,2236.134,21,
1526,SBT4050,1,4,3.41505,4.0001,2236.134,21,
1526,SBT4050,1,4,3.45364,4.0004,2236.134,21.1,
1526,SBT4050,1,4,3.483512,3.9998,2236.134,21.1,
1526,SBT4050,1,4,3.50871,4,2236.134,21.1,
1526,SBT4050,1,4,3.52899,4,2236.134,21.1,
1526,SBT4050,1,4,3.54671,3.9998,2236.134,21.1,
1526,SBT4050,1,4,3.56139,4.0001,2236.134,21.2,
1526,SBT4050,1,4,3.57423,4.0001,2236.134,21.3,
1526,SBT4050,1,4,3.58476,4.0004,2236.134,21.3,
1526,SBT4050,1,4,3.59438,3.9997,2236.134,21.4,
1526,SBT4050,1,4,3.601006,3.9998,2236.134,21.4,
1526,SBT4050,1,4,3.60681,4.0001,2236.134,21.5,
1526,SBT4050,1,4,3.61091,3.9998,2236.134,21.6,
1526,SBT4050,1,4,3.61478,3.9995,2236.134,21.6,
1526,SBT4050,1,4,3.617766,3.9997,2236.134,21.7,
1526,SBT4050,1,4,3.62123,3.9998,2236.134,21.7,
1526,SBT4050,1,4,3.62385,3.9998,2236.134,21.8,
1526,SBT4050,1,4,3.62768,4,2236.134,21.9,
1526,SBT4050,1,4,3.630616,4,2236.134,21.9,
1526,SBT4050,1,4,3.63387,4,2236.134,22,
1526,SBT4050,1,4,3.637436,3.9998,2236.134,22,
1526,SBT4050,1,4,3.64095,3.9998,2236.134,22,
1526,SBT4050,1,4,3.64424,4.0001,2236.134,22.1,
1526,SBT4050,1,4,3.64788,4,2236.134,22.2,
1526,SBT4050,1,4,3.65128,3.9995,2236.134,22.2,
1526,SBT4050,1,4,3.65465,4.0001,2236.134,22.2,
1526,SBT4050,1,4,3.65769,3.9992,2236.134,22.3,
1526,SBT4050,1,4,3.66106,3.9999,2236.134,22.3,
1526,SBT4050,1,4,3.66412,3.9999,2236.134,22.3,
1526,SBT4050,1,4,3.66747,4.0004,2236.134,22.4,
1526,SBT4050,1,4,3.67095,4,2236.134,22.4,
1526,SBT4050,1,4,3.67419,4,2236.134,22.5,
1526,SBT4050,1,4,3.677314,3.9997,2236.134,22.5,
1526,SBT4050,1,4,3.68034,4.0002,2236.134,22.5,
1526,SBT4050,1,4,3.68372,4.0005,2236.134,22.6,
1526,SBT4050,1,4,3.68632,3.9994,2236.134,22.6,
1526,SBT4050,1,4,3.6896,3.9999,2236.134,22.6,
1526,SBT4050,1,4,3.69263,4.0005,2236.134,22.7,
1526,SBT4050,1,4,3.6959,4,2236.134,22.7,
1526,SBT4050,1,4,3.698756,3.9999,2236.134,22.7,
1526,SBT4050,1,4,3.702272,4,2236.134,22.7,
1526,SBT4050,1,4,3.704924,3.9997,2236.134,22.7,
1526,SBT4050,1,4,3.70836,3.9998,2236.134,22.8,
1526,SBT4050,1,4,3.71151,3.9993,2236.134,22.8,
1526,SBT4050,1,4,3.7146,3.9999,2236.134,22.8,
1526,SBT4050,1,4,3.717798,3.9996,2236.134,22.8,
1526,SBT4050,1,4,3.72095,3.9994,2236.134,22.8,
1526,SBT4050,1,4,3.7236,3.9996,2236.134,22.8,
1526,SBT4050,1,4,3.7267,4.0001,2236.134,22.8,
1526,SBT4050,1,4,3.72968,3.9999,2236.134,22.9,
1526,SBT4050,1,4,3.73237,4.0001,2236.134,22.9,
1526,SBT4050,1,4,3.735238,3.9996,2236.134,22.9,
1526,SBT4050,1,4,3.73798,3.9998,2236.134,22.9,
1526,SBT4050,1,4,3.740564,4.0002,2236.134,22.9,
1526,SBT4050,1,4,3.74269,4.0001,2236.134,22.9,
1526,SBT4050,1,4,3.74488,3.9998,2236.134,22.9,
1526,SBT4050,1,4,3.74693,3.9996,2236.134,22.9,
1526,SBT4050,1,4,3.74925,4.0004,2236.134,22.9,
1526,SBT4050,1,4,3.75121,4.0001,2236.134,22.9,
1526,SBT4050,1,4,3.75315,3.9998,2236.134,22.9,
1526,SBT4050,1,4,3.75486,4.0001,2236.134,23,
1526,SBT4050,1,4,3.757294,3.9998,2236.134,23,
1526,SBT4050,1,4,3.75907,4.0002,2236.134,22.9,
1526,SBT4050,1,4,3.76171,4.0004,2236.134,23,
1526,SBT4050,1,4,3.76333,3.9996,2236.134,23,
1526,SBT4050,1,4,3.76553,4.0001,2236.134,23,
1526,SBT4050,1,4,3.76733,3.9996,2236.134,23,
1526,SBT4050,1,4,3.76962,4.0001,2236.134,23,
1526,SBT4050,1,4,3.771488,4.0001,2236.134,23,
1526,SBT4050,1,4,3.77395,3.9998,2236.134,23,
1526,SBT4050,1,4,3.77576,3.9998,2236.134,23.1,
1526,SBT4050,1,4,3.77832,3.9999,2236.134,23.1,
1526,SBT4050,1,4,3.78044,3.9999,2236.134,23.1,
1526,SBT4050,1,4,3.78284,3.9999,2236.134,23.1,
1526,SBT4050,1,4,3.78527,3.9996,2236.134,23.1,
1526,SBT4050,1,4,3.787458,3.9998,2236.134,23.1,
1526,SBT4050,1,4,3.7897,3.9993,2236.134,23.1,
1526,SBT4050,1,4,3.79244,3.9998,2236.134,23.1,
1526,SBT4050,1,4,3.79461,4.0001,2236.134,23.1,
1526,SBT4050,1,4,3.79689,4.0005,2236.134,23.1,
1526,SBT4050,1,4,3.79934,4.0002,2236.134,23.1,
1526,SBT4050,1,4,3.80188,3.9996,2236.134,23.2,
1526,SBT4050,1,4,3.80432,4.0003,2236.134,23.1,
1526,SBT4050,1,4,3.80671,3.9999,2236.134,23.2,
1526,SBT4050,1,4,3.80942,4.0001,2236.134,23.2,
1526,SBT4050,1,4,3.81175,4.0001,2236.134,23.2,
1526,SBT4050,1,4,3.81436,4.0001,2236.134,23.2,
1526,SBT4050,1,4,3.81679,4.0002,2236.134,23.2,
1526,SBT4050,1,4,3.81963,3.9998,2236.134,23.2,
1526,SBT4050,1,4,3.82192,3.9996,2236.134,23.2,
1526,SBT4050,1,4,3.82453,3.9999,2236.134,23.2,
1526,SBT4050,1,4,3.82657,3.9998,2236.134,23.2,
1526,SBT4050,1,4,3.8297,4.0003,2236.134,23.2,
1526,SBT4050,1,4,3.831776,4,2236.134,23.2,
1526,SBT4050,1,4,3.834686,4.0001,2236.134,23.3,
1526,SBT4050,1,4,3.837008,4,2236.134,23.3,
1526,SBT4050,1,4,3.83999,4.0009,2236.134,23.3,
1526,SBT4050,1,4,3.84232,4,2236.134,23.3,
1526,SBT4050,1,4,3.84522,4,2236.134,23.3,
1526,SBT4050,1,4,3.847804,4.0003,2236.134,23.4,
1526,SBT4050,1,4,3.85112,4.0004,2236.134,23.4,
1526,SBT4050,1,4,3.85366,4.0004,2236.134,23.3,
1526,SBT4050,1,4,3.85649,3.9998,2236.134,23.3,
1526,SBT4050,1,4,3.85935,3.9997,2236.134,23.4,
1526,SBT4050,1,4,3.8622,3.9998,2236.134,23.4,
1526,SBT4050,1,4,3.86514,3.9998,2236.134,23.4,
1526,SBT4050,1,4,3.868118,4.0002,2236.134,23.4,
1526,SBT4050,1,4,3.87125,4,2236.134,23.4,
1526,SBT4050,1,4,3.874264,3.9998,2236.134,23.4,
1526,SBT4050,1,4,3.877262,3.9996,2236.134,23.5,
1526,SBT4050,1,4,3.880624,4.0001,2236.134,23.4,
1526,SBT4050,1,4,3.88375,3.9996,2236.134,23.4,
1526,SBT4050,1,4,3.88679,3.9999,2236.134,23.5,
1526,SBT4050,1,4,3.89021,4.0008,2236.134,23.5,
1526,SBT4050,1,4,3.893,4.0001,2236.134,23.4,
1526,SBT4050,1,4,3.89659,4.0004,2236.134,23.5,
1526,SBT4050,1,4,3.8994,3.9994,2236.134,23.5,
1526,SBT4050,1,4,3.90208,4.0003,2236.134,,