File: Dataset/AANDCNet/cell1/cycle_04/Test1507.csv
Test:,1507,,,,,,,
Start Time:,6/26/2021 9:22 PM,,,,,,,
End Time:,6/27/2021 12:02 AM,,,,,,,
Test,Rack,Shelf,Position,Voltage (V),Current (A),Discharge Capacity (mAh),TC_1 (C),
1507,SBT4050,1,4,3.55613,0,0,20.3,
1507,SBT4050,1,4,3.55578,0,0,20.3,
1507,SBT4050,1,4,3.556148,0,0,20.3,
1507,SBT4050,1,4,3.55609,0,0,20.3,
1507,SBT4050,1,4,3.55612,0,0,20.3,
1507,SBT4050,1,4,3.55607,0,0,20.3,
1507,SBT4050,1,4,3.5561,0,0,20.3,
1507,SBT4050,1,4,3.55622,0,0,20.3,
1507,SBT4050,1,4,3.66232,3.9999,0,20.3,
1507,SBT4050,1,4,3.68033,4.0003,0,20.3,
1507,SBT4050,1,4,3.692592,4,0,20.4,
1507,SBT4050,1,4,3.70218,3.9996,0,20.4,
1507,SBT4050,1,4,3.71063,4.0005,0,20.4,
1507,SBT4050,1,4,3.71786,4.0002,0,20.5,
1507,SBT4050,1,4,3.72426,3.9999,0,20.5,
1507,SBT4050,1,4,3.73014,4.0002,0,20.6,
1507,SBT4050,1,4,3.73488,4,0,20.6,
1507,SBT4050,1,4,3.739,3.9996,0,20.7,
1507,SBT4050,1,4,3.74239,3.9999,0,20.7,
1507,SBT4050,1,4,3.74521,4.0005,0,20.7,
1507,SBT4050,1,4,3.74821,3.9998,0,20.8,
1507,SBT4050,1,4,3.75029,4.0004,0,20.8,
1507,SBT4050,1,4,3.75285,4.0002,0,20.9,
1507,SBT4050,1,4,3.7551,4.0001,0,20.9,
1507,SBT4050,1,4,3.75737,4.0001,0,20.9,
1507,SBT4050,1,4,3.75914,3.9999,0,21,
1507,SBT4050,1,4,3.761382,3.9998,0,21,
1507,SBT4050,1,4,3.76357,4.0004,0,21.1,
1507,SBT4050,1,4,3.76569,3.9999,0,21.1,
1507,SBT4050,1,4,3.767766,3.9999,0,21.1,
1507,SBT4050,1,4,3.76989,4.0001,0,21.1,
1507,SBT4050,1,4,3.77178,4.0003,0,21.2,
1507,SBT4050,1,4,3.7741,3.9997,0,21.2,
1507,SBT4050,1,4,3.77615,4.0003,0,21.3,
1507,SBT4050,1,4,3.77803,3.9998,0,21.3,
1507,SBT4050,1,4,3.78052,4,0,21.3,
1507,SBT4050,1,4,3.78271,4,0,21.3,
1507,SBT4050,1,4,3.78516,4,0,21.4,
1507,SBT4050,1,4,3.78749,3.9997,0,21.4,
1507,SBT4050,1,4,3.78989,4.0003,0,21.4,
1507,SBT4050,1,4,3.79212,3.9998,0,21.5,
1507,SBT4050,1,4,3.79465,3.9998,0,21.5,
1507,SBT4050,1,4,3.79685,3.9998,0,21.5,
1507,SBT4050,1,4,3.79923,4.0001,0,21.5,
1507,SBT4050,1,4,3.801286,4,0,21.6,
1507,SBT4050,1,4,3.803682,3.9997,0,21.6,
1507,SBT4050,1,4,3.8063,3.9995,0,21.6,
1507,SBT4050,1,4,3.8086,4,0,21.6,
1507,SBT4050,1,4,3.81087,4.0001,0,21.7,
1507,SBT4050,1,4,3.813372,3.9998,0,21.7,
1507,SBT4050,1,4,3.81591,3.9994,0,21.7,
1507,SBT4050,1,4,3.818484,3.9998,0,21.8,
1507,SBT4050,1,4,3.820904,3.9995,0,21.8,
1507,SBT4050,1,4,3.82339,3.9998,0,21.8,
1507,SBT4050,1,4,3.82588,4.0003,0,21.8,
1507,SBT4050,1,4,3.82828,4.0001,0,21.8,
1507,SBT4050,1,4,3.83104,4.0004,0,21.8,
1507,SBT4050,1,4,3.8334,3.9997,0,21.9,
1507,SBT4050,1,4,3.83608,4.0003,0,21.9,
1507,SBT4050,1,4,3.83845,3.9997,0,21.9,
1507,SBT4050,1,4,3.84113,4.0003,0,21.9,
1507,SBT4050,1,4,3.84371,3.9998,0,21.9,
1507,SBT4050,1,4,3.84649,4,0,22,
1507,SBT4050,1,4,3.84928,4.0004,0,22,
1507,SBT4050,1,4,3.85154,4,0,22,
1507,SBT4050,1,4,3.85447,3.9998,0,22,
1507,SBT4050,1,4,3.85712,4.0003,0,22,
1507,SBT4050,1,4,3.85989,4.0001,0,22.1,
1507,SBT4050,1,4,3.86273,4.0004,0,22,
1507,SBT4050,1,4,3.86555,4.0003,0,22.1,
1507,SBT4050,1,4,3.86859,4.0003,0,22,
1507,SBT4050,1,4,3.8718,3.9995,0,22.1,
1507,SBT4050,1,4,3.87424,4.0001,0,22.1,
1507,SBT4050,1,4,3.8772,4.0002,0,22.1,
1507,SBT4050,1,4,3.88052,3.9999,0,22.1,
1507,SBT4050,1,4,3.88365,3.9999,0,22.1,
1507,SBT4050,1,4,3.88708,3.9999,0,22.2,
1507,SBT4050,1,4,3.88988,3.9999,0,22.1,
1507,SBT4050,1,4,3.89325,4.0002,0,22.2,
1507,SBT4050,1,4,3.89674,3.9997,0,22.2,
1507,SBT4050,1,4,3.89983,3.9996,0,22.2,
1507,SBT4050,1,4,3.9032,4,0,22.2,
1507,SBT4050,1,4,3.9067,3.9999,0,22.2,
1507,SBT4050,1,4,3.909746,4,0,22.2,
1507,SBT4050,1,4,3.91296,4,0,22.2,
1507,SBT4050,1,4,3.91653,4,0,22.2,
1507,SBT4050,1,4,3.91971,3.9992,0,22.2,
1507,SBT4050,1,4,3.923272,4.0002,0,22.2,
1507,SBT4050,1,4,3.92689,3.9999,0,22.2,
1507,SBT4050,1,4,3.93007,3.9996,0,22.2,
1507,SBT4050,1,4,3.93372,3.9999,0,22.2,
1507,SBT4050,1,4,3.93722,4,0,22.3,
1507,SBT4050,1,4,3.94093,4.0003,0,22.3,
1507,SBT4050,1,4,3.944152,4.0003,0,22.2,
1507,SBT4050,1,4,3.94784,4,0,22.2,
1507,SBT4050,1,4,3.95132,4.0003,0,22.2,
1507,SBT4050,1,4,3.95472,3.9998,0,22.2,
1507,SBT4050,1,4,3.95851,4.0002,0,22.2,
1507,SBT4050,1,4,3.96214,3.9997,0,22.3,
1507,SBT4050,1,4,3.96588,4.0004,0,22.2,
1507,SBT4050,1,4,3.96922,4.0001,0,22.2,
1507,SBT4050,1,4,3.97282,4,0,22.3,
1507,SBT4050,1,4,3.976314,4,0,22.3,
1507,SBT4050,1,4,3.98006,3.9998,0,22.3,
1507,SBT4050,1,4,3.983238,3.9995,0,22.3,
1507,SBT4050,1,4,3.98701,4.0004,0,22.3,
1507,SBT4050,1,4,3.9906,3.9998,0,22.3,
1507,SBT4050,1,4,3.994024,4,0,22.3,
1507,SBT4050,1,4,3.997258,3.9998,0,22.3,
1507,SBT4050,1,4,4.00098,4.0001,0,22.3,
1507,SBT4050,1,4,4.004794,4.0003,0,22.3,
1507,SBT4050,1,4,4.00805,3.9995,0,22.3,
1507,SBT4050,1,4,4.01153,4,0,22.3,
1507,SBT4050,1,4,4.01508,4,0,22.3,
1507,SBT4050,1,4,4.01855,3.9996,0,22.3,
1507,SBT4050,1,4,4.02193,4,0,22.3,
1507,SBT4050,1,4,4.025512,3.9996,0,22.3,
1507,SBT4050,1,4,4.02909,4.0006,0,22.3,
1507,SBT4050,1,4,4.03244,4.0005,0,22.3,
1507,SBT4050,1,4,4.03592,3.9995,0,22.3,
1507,SBT4050,1,4,4.03931,4.0003,0,22.3,
1507,SBT4050,1,4,4.0427,4.0002,0,22.3,
1507,SBT4050,1,4,4.04651,3.9997,0,22.3,
1507,SBT4050,1,4,4.04977,3.9997,0,22.3,
1507,SBT4050,1,4,4.05317,4,0,22.3,
1507,SBT4050,1,4,4.056744,4.0002,0,22.3,
1507,SBT4050,1,4,4.06071,3.9996,0,22.3,
1507,SBT4050,1,4,4.06375,4.0005,0,22.3,
1507,SBT4050,1,4,4.06718,4,0,22.3,
1507,SBT4050,1,4,4.070974,4.0003,0,22.3,
1507,SBT4050,1,4,4.07482,4.0002,0,22.3,
1507,SBT4050,1,4,4.07835,3.9999,0,22.3,
1507,SBT4050,1,4,4.08242,3.9997,0,22.3,
1507,SBT4050,1,4,4.08576,3.9999,0,22.3,
1507,SBT4050,1,4,4.08986,4.0002,0,22.3,
1507,SBT4050,1,4,4.09357,4.0003,0,22.3,
1507,SBT4050,1,4,4.09733,3.9996,0,22.3,
1507,SBT4050,1,4,4.10124,4.0002,0,22.3,
1507,SBT4050,1,4,4.10519,4.0002,0,22.3,
1507,SBT4050,1,4,4.10926,3.9996,0,22.3,
1507,SBT4050,1,4,4.11335,4.0002,0,22.3,
1507,SBT4050,1,4,4.117468,4,0,22.3,
1507,SBT4050,1,4,4.12167,3.9997,0,22.3,
1507,SBT4050,1,4,4.12617,4.0003,0,22.3,
1507,SBT4050,1,4,4.13036,3.9995,0,22.3,
1507,SBT4050,1,4,4.13522,3.9997,0,22.3,
1507,SBT4050,1,4,4.13953,3.9999,0,22.4,
1507,SBT4050,1,4,4.14386,3.9994,0,22.4,
1507,SBT4050,1,4,4.148646,3.9999,0,22.4,
1507,SBT4050,1,4,4.15358,4.0006,0,22.4,
1507,SBT4050,1,4,4.158218,3.9999,0,22.4,
1507,SBT4050,1,4,4.16271,4,0,22.3,
1507,SBT4050,1,4,4.16727,4.0002,0,22.3,
1507,SBT4050,1,4,4.17221,3.9999,0,22.3,
1507,SBT4050,1,4,4.177082,3.9994,0,22.3,
1507,SBT4050,1,4,4.18174,3.9996,0,22.3,
1507,SBT4050,1,4,4.18655,4.0003,0,22.4,
1507,SBT4050,1,4,4.19117,3.9999,0,22.3,
1507,SBT4050,1,4,4.19617,3.9997,0,22.3,
1507,SBT4050,1,4,4.2005,3.9903,0,22.3,
1507,SBT4050,1,4,4.20044,3.8119,0,22.3,
1507,SBT4050,1,4,4.20013,3.6757,0,22.4,
1507,SBT4050,1,4,4.20021,3.5675,0,22.3,
1507,SBT4050,1,4,4.19989,3.4669,0,22.3,
1507,SBT4050,1,4,4.20003,3.3782,0,22.3,
1507,SBT4050,1,4,4.20034,3.2942,0,22.3,
1507,SBT4050,1,4,4.20032,3.2144,0,22.3,
1507,SBT4050,1,4,4.20003,3.1397,0,22.3,
1507,SBT4050,1,4,4.20021,3.0726,0,22.3,
1507,SBT4050,1,4,4.20019,3.0045,0,22.3,
1507,SBT4050,1,4,4.19993,2.9407,0,22.2,
1507,SBT4050,1,4,4.19995,2.8838,0,22.2,
1507,SBT4050,1,4,4.20017,2.8252,0,22.2,
1507,SBT4050,1,4,4.20001,2.7695,0,22.2,
1507,SBT4050,1,4,4.20009,2.7176,0,22.1,
1507,SBT4050,1,4,4.19993,2.6707,0,22.1,
1507,SBT4050,1,4,4.20017,2.6202,0,22.1,
1507,SBT4050,1,4,4.20011,2.5738,0,22,
1507,SBT4050,1,4,4.19985,2.53,0,22.1,
1507,SBT4050,1,4,4.2002,2.4877,0,22,
1507,SBT4050,1,4,4.2002,2.446,0,22,
1507,SBT4050,1,4,4.20013,2.4036,0,22,
1507,SBT4050,1,4,4.19999,2.3659,0,21.9,
1507,SBT4050,1,4,4.20063,2.3269,0,21.9,
1507,SBT4050,1,4,4.19992,2.2905,0,21.9,
1507,SBT4050,1,4,4.20002,2.2556,0,21.9,
1507,SBT4050,1,4,4.20011,2.2194,0,21.8,
1507,SBT4050,1,4,4.19983,2.1839,0,21.8,
1507,SBT4050,1,4,4.20011,2.1487,0,21.7,
1507,SBT4050,1,4,4.20011,2.1186,0,21.8,
1507,SBT4050,1,4,4.19996,2.0867,0,21.8,
1507,SBT4050,1,4,4.200054,2.0567,0,21.7,
1507,SBT4050,1,4,4.20014,2.0228,0,21.7,
1507,SBT4050,1,4,4.20013,1.9903,0,21.7,
1507,SBT4050,1,4,4.200054,1.9587,0,21.7,
1507,SBT4050,1,4,4.200078,1.9272,0,21.6,
1507,SBT4050,1,4,4.20021,1.898,0,21.6,
1507,SBT4050,1,4,4.19999,1.8677,0,21.6,
1507,SBT4050,1,4,4.19998,1.8406,0,21.6,
1507,SBT4050,1,4,4.200078,1.8107,0,21.6,
1507,SBT4050,1,4,4.200364,1.7804,0,21.5,
1507,SBT4050,1,4,4.20003,1.7547,0,21.5,
1507,SBT4050,1,4,4.20014,1.727,0,21.5,
1507,SBT4050,1,4,4.20026,1.6996,0,21.5,
1507,SBT4050,1,4,4.20016,1.6695,0,21.5,
1507,SBT4050,1,4,4.19999,1.6425,0,21.4,
1507,SBT4050,1,4,4.20024,1.6166,0,21.4,
1507,SBT4050,1,4,4.20015,1.5911,0,21.4,
1507,SBT4050,1,4,4.20029,1.5635,0,21.4,
1507,SBT4050,1,4,4.20016,1.5364,0,21.4,
1507,SBT4050,1,4,4.19983,1.5101,0,21.4,
1507,SBT4050,1,4,4.19998,1.4851,0,21.3,
1507,SBT4050,1,4,4.200066,1.4582,0,21.3,
1507,SBT4050,1,4,4.20032,1.4337,0,21.3,
1507,SBT4050,1,4,4.20019,1.4086,0,21.3,
1507,SBT4050,1,4,4.19997,1.3875,0,21.3,
1507,SBT4050,1,4,4.20003,1.362,0,21.3,
1507,SBT4050,1,4,4.200054,1.3356,0,21.3,
1507,SBT4050,1,4,4.200102,1.3144,0,21.2,
1507,SBT4050,1,4,4.20014,1.2896,0,21.2,
1507,SBT4050,1,4,4.20017,1.2678,0,21.2,
1507,SBT4050,1,4,4.2002,1.2453,0,21.2,
1507,SBT4050,1,4,4.200078,1.2248,0,21.2,
1507,SBT4050,1,4,4.19999,1.2029,0,21.2,
1507,SBT4050,1,4,4.20022,1.1794,0,21.2,
1507,SBT4050,1,4,4.20034,1.1595,0,21.1,
1507,SBT4050,1,4,4.20013,1.1375,0,21.1,
1507,SBT4050,1,4,4.2002,1.1174,0,21.1,
1507,SBT4050,1,4,4.19998,1.0959,0,21.1,
1507,SBT4050,1,4,4.200078,1.078,0,21.1,
1507,SBT4050,1,4,4.20017,1.0593,0,21.1,
1507,SBT4050,1,4,4.20013,1.0411,0,21.1,
1507,SBT4050,1,4,4.199744,1.0233,0,21.1,
1507,SBT4050,1,4,4.20011,1.0001,0,21.1,
1507,SBT4050,1,4,4.20015,0.9803,0,21,
1507,SBT4050,1,4,4.20023,0.9648,0,21,
1507,SBT4050,1,4,4.20009,0.9481,0,21,
1507,SBT4050,1,4,4.20022,0.9325,0,21,
1507,SBT4050,1,4,4.20015,0.9129,0,21,
1507,SBT4050,1,4,4.19988,0.8958,0,21,
1507,SBT4050,1,4,4.2002,0.8806,0,21,
1507,SBT4050,1,4,4.2002,0.8644,0,21,
1507,SBT4050,1,4,4.20009,0.8513,0,21,
1507,SBT4050,1,4,4.20029,0.8368,0,21,
1507,SBT4050,1,4,4.20009,0.8218,0,20.9,
1507,SBT4050,1,4,4.20003,0.8047,0,20.9,
1507,SBT4050,1,4,4.20014,0.7888,0,20.9,
1507,SBT4050,1,4,4.2003,0.7752,0,20.9,
1507,SBT4050,1,4,4.20045,0.7607,0,20.9,
1507,SBT4050,1,4,4.20033,0.7474,0,20.9,
1507,SBT4050,1,4,4.20015,0.7342,0,20.9,
1507,SBT4050,1,4,4.200066,0.723,0,20.9,
1507,SBT4050,1,4,4.20042,0.7079,0,20.9,
1507,SBT4050,1,4,4.19988,0.6929,0,20.9,
1507,SBT4050,1,4,4.200054,0.6819,0,20.9,
1507,SBT4050,1,4,4.20024,0.6693,0,20.8,
1507,SBT4050,1,4,4.20026,0.6569,0,20.8,
1507,SBT4050,1,4,4.20014,0.6472,0,20.8,
1507,SBT4050,1,4,4.200054,0.636,0,20.8,
1507,SBT4050,1,4,4.200078,0.6228,0,20.8,
1507,SBT4050,1,4,4.20014,0.6116,0,20.8,
1507,SBT4050,1,4,4.20004,0.6,0,20.8,
1507,SBT4050,1,4,4.20002,0.5914,0,20.8,
1507,SBT4050,1,4,4.20004,0.5808,0,20.8,
1507,SBT4050,1,4,4.20029,0.5688,0,20.8,
1507,SBT4050,1,4,4.20013,0.5584,0,20.8,
1507,SBT4050,1,4,4.19996,0.5503,0,20.8,
1507,SBT4050,1,4,4.200066,0.5391,0,20.8,
1507,SBT4050,1,4,4.20033,0.5302,0,20.8,
1507,SBT4050,1,4,4.20019,0.521,0,20.8,
1507,SBT4050,1,4,4.20013,0.5116,0,20.8,
1507,SBT4050,1,4,4.20017,0.5043,0,20.8,
1507,SBT4050,1,4,4.200078,0.495,0,20.7,
1507,SBT4050,1,4,4.200066,0.4883,0,20.7,
1507,SBT4050,1,4,4.20013,0.4786,0,20.8,
1507,SBT4050,1,4,4.20009,0.46938,0,20.7,
1507,SBT4050,1,4,4.20003,0.46169,0,20.7,
1507,SBT4050,1,4,4.20009,0.45428,0,20.7,
1507,SBT4050,1,4,4.19983,0.44531,0,20.7,
1507,SBT4050,1,4,4.20011,0.4386,0,20.7,
1507,SBT4050,1,4,4.20009,0.42933,0,20.7,
1507,SBT4050,1,4,4.20013,0.42041,0,20.7,
1507,SBT4050,1,4,4.20014,0.41393,0,20.7,
1507,SBT4050,1,4,4.19986,0.40945,0,20.7,
1507,SBT4050,1,4,4.20024,0.40307,0,20.7,
1507,SBT4050,1,4,4.20015,0.3937,0,20.7,
1507,SBT4050,1,4,4.19988,0.38967,0,20.7,
1507,SBT4050,1,4,4.19996,0.38493,0,20.7,
1507,SBT4050,1,4,4.200066,0.3782,0,20.7,
1507,SBT4050,1,4,4.20021,0.37234,0,20.7,
1507,SBT4050,1,4,4.20015,0.36719,0,20.7,
1507,SBT4050,1,4,4.2002,0.36048,0,20.7,
1507,SBT4050,1,4,4.20015,0.35365,0,20.7,
1507,SBT4050,1,4,4.20027,0.34671,0,20.7,
1507,SBT4050,1,4,4.20017,0.3422,0,20.7,
1507,SBT4050,1,4,4.200066,0.33625,0,20.7,
1507,SBT4050,1,4,4.20003,0.33048,0,20.7,
1507,SBT4050,1,4,4.20011,0.32755,0,20.7,
1507,SBT4050,1,4,4.20009,0.32278,0,20.7,
1507,SBT4050,1,4,4.20004,0.31777,0,20.7,
1507,SBT4050,1,4,4.20003,0.3128,0,20.7,
1507,SBT4050,1,4,4.20014,0.30785,0,20.6,
1507,SBT4050,1,4,4.20021,0.30233,0,20.6,
1507,SBT4050,1,4,4.19996,0.29841,0,20.7,
1507,SBT4050,1,4,4.20028,0.29317,0,20.7,
1507,SBT4050,1,4,4.20011,0.28864,0,20.6,
1507,SBT4050,1,4,4.20034,0.28374,0,20.7,
1507,SBT4050,1,4,4.20015,0.27819,0,20.7,
1507,SBT4050,1,4,4.20014,0.27435,0,20.6,
1507,SBT4050,1,4,4.20015,0.27044,0,20.6,
1507,SBT4050,1,4,4.200376,0.26609,0,20.6,
1507,SBT4050,1,4,4.19999,0.26308,0,20.6,
1507,SBT4050,1,4,4.20022,0.25979,0,20.6,
1507,SBT4050,1,4,4.20003,0.25679,0,20.6,
1507,SBT4050,1,4,4.20029,0.2527,0,20.6,
1507,SBT4050,1,4,4.20009,0.24846,0,20.6,
1507,SBT4050,1,4,4.200054,0.24387,0,20.6,
1507,SBT4050,1,4,4.20015,0.2403,0,20.6,
1507,SBT4050,1,4,4.20022,0.2368,0,20.6,
1507,SBT4050,1,4,4.20003,0.2343,0,20.6,
1507,SBT4050,1,4,4.20027,0.23029,0,20.6,
1507,SBT4050,1,4,4.20046,0.22671,0,20.6,
1507,SBT4050,1,4,4.20009,0.22326,0,20.6,
1507,SBT4050,1,4,4.20015,0.22029,0,20.6,
1507,SBT4050,1,4,4.20011,0.21756,0,20.6,
1507,SBT4050,1,4,4.200066,0.21584,0,20.6,
1507,SBT4050,1,4,4.20019,0.21256,0,20.6,
1507,SBT4050,1,4,4.20015,0.20955,0,20.6,
1507,SBT4050,1,4,4.20017,0.20682,0,20.6,
1507,SBT4050,1,4,4.19998,0.20331,0,20.6,
1507,SBT4050,1,4,4.19983,0.20124,0,20.6,
1507,SBT4050,1,4,4.20014,0.19957,0,20.6,
1507,SBT4050,1,4,4.20001,0.19825,0,20.6,
1507,SBT4050,1,4,4.20013,0.19589,0,20.6,
1507,SBT4050,1,4,4.200066,0.19251,0,20.6,
1507,SBT4050,1,4,4.20016,0.18913,0,20.6,
1507,SBT4050,1,4,4.20017,0.18666,0,20.6,
1507,SBT4050,1,4,4.20003,0.18465,0,20.6,
1507,SBT4050,1,4,4.20023,0.18265,0,20.6,
1507,SBT4050,1,4,4.20045,0.18021,0,20.6,
1507,SBT4050,1,4,4.2002,0.17782,0,20.6,
1507,SBT4050,1,4,4.20032,0.17537,0,20.6,
1507,SBT4050,1,4,4.2003,0.17232,0,20.6,
1507,SBT4050,1,4,4.20034,0.16937,0,20.6,
1507,SBT4050,1,4,4.200102,0.16713,0,20.6,
1507,SBT4050,1,4,4.20034,0.16416,0,20.6,
1507,SBT4050,1,4,4.200078,0.16175,0,20.6,
1507,SBT4050,1,4,4.20026,0.15952,0,20.6,
1507,SBT4050,1,4,4.20004,0.15807,0,20.6,
1507,SBT4050,1,4,4.20024,0.15471,0,20.6,
1507,SBT4050,1,4,4.200066,0.15209,0,20.6,
1507,SBT4050,1,4,4.20011,0.15022,0,20.6,
1507,SBT4050,1,4,4.19973,0.1496,0,20.6,
1507,SBT4050,1,4,4.20014,0.14794,0,20.6,
1507,SBT4050,1,4,4.20003,0.14624,0,20.6,
1507,SBT4050,1,4,4.20014,0.14426,0,20.6,
1507,SBT4050,1,4,4.20009,0.14226,0,20.6,
1507,SBT4050,1,4,4.20014,0.14058,0,20.6,
1507,SBT4050,1,4,4.19993,0.14001,0,20.6,
1507,SBT4050,1,4,4.20015,0.13874,0,20.6,
1507,SBT4050,1,4,4.20019,0.13696,0,20.6,
1507,SBT4050,1,4,4.20022,0.13565,0,20.6,
1507,SBT4050,1,4,4.200066,0.13391,0,20.6,
1507,SBT4050,1,4,4.20004,0.13217,0,20.6,
1507,SBT4050,1,4,4.19989,0.13046,0,20.6,
1507,SBT4050,1,4,4.19991,0.12917,0,20.6,
1507,SBT4050,1,4,4.19999,0.12775,0,20.6,
1507,SBT4050,1,4,4.20029,0.12597,0,20.6,
1507,SBT4050,1,4,4.200412,0.12485,0,20.6,
1507,SBT4050,1,4,4.200066,0.12281,0,20.6,
1507,SBT4050,1,4,4.19988,0.1211,0,20.6,
1507,SBT4050,1,4,4.20014,0.11917,0,20.6,
1507,SBT4050,1,4,4.20004,0.1179,0,20.6,
1507,SBT4050,1,4,4.19996,0.11652,0,20.6,
1507,SBT4050,1,4,4.20011,0.11525,0,20.6,
1507,SBT4050,1,4,4.200388,0.11425,0,20.6,
1507,SBT4050,1,4,4.20013,0.11336,0,20.6,
1507,SBT4050,1,4,4.200102,0.11222,0,20.6,
1507,SBT4050,1,4,4.20017,0.11095,0,20.6,
1507,SBT4050,1,4,4.19998,0.11007,0,20.6,
1507,SBT4050,1,4,4.20013,0.10915,0,20.6,
1507,SBT4050,1,4,4.20019,0.1083,0,20.6,
1507,SBT4050,1,4,4.20009,0.1075,0,20.6,
1507,SBT4050,1,4,4.20009,0.10601,0,20.6,
1507,SBT4050,1,4,4.20019,0.10457,0,20.6,
1507,SBT4050,1,4,4.20002,0.10379,0,20.6,
1507,SBT4050,1,4,4.20003,0.10332,0,20.6,
1507,SBT4050,1,4,4.20003,0.10204,0,20.6,
1507,SBT4050,1,4,4.20027,0.10076,0,20.6,
1507,SBT4050,1,4,4.19786,0,0,20.6,
1507,SBT4050,1,4,4.19729,0,0,20.6,
1507,SBT4050,1,4,4.19677,0,0,20.6,
1507,SBT4050,1,4,4.196148,0,0,20.6,
1507,SBT4050,1,4,4.195882,0,0,20.6,
1507,SBT4050,1,4,4.19553,0,0,20.6,
1507,SBT4050,1,4,4.19511,0,0,20.6,
1507,SBT4050,1,4,4.19477,0,0,20.6,
1507,SBT4050,1,4,4.19452,0,0,20.6,
1507,SBT4050,1,4,4.1944,0,0,20.6,
1507,SBT4050,1,4,4.194028,0,0,20.6,
1507,SBT4050,1,4,4.193606,0,0,20.6,
1507,SBT4050,1,4,4.193472,0,0,20.6,
1507,SBT4050,1,4,4.193084,0,0,20.6,
1507,SBT4050,1,4,4.192938,0,0,20.6,
1507,SBT4050,1,4,4.192778,0,0,20.6,
1507,SBT4050,1,4,4.19234,0,0,20.6,
1507,SBT4050,1,4,4.19226,0,0,20.6,
1507,SBT4050,1,4,4.19208,0,0,20.6,
1507,SBT4050,1,4,4.19193,0,0,20.6,
1507,SBT4050,1,4,4.191948,0,0,20.6,
1507,SBT4050,1,4,4.19193,0,0,20.6,
1507,SBT4050,1,4,4.191356,0,0,20.6,
1507,SBT4050,1,4,4.19132,0,0,20.6,
1507,SBT4050,1,4,4.191116,0,0,20.6,
1507,SBT4050,1,4,4.19122,0,0,20.5,
1507,SBT4050,1,4,4.191,0,0,20.6,
1507,SBT4050,1,4,4.19095,0,0,20.6,
1507,SBT4050,1,4,4.19049,0,0,20.5,
1507,SBT4050,1,4,4.19065,0,0,20.6,
1507,SBT4050,1,4,4.19037,0,0,20.5,
1507,SBT4050,1,4,4.190048,0,0,20.6,
1507,SBT4050,1,4,4.190002,0,0,20.6,
1507,SBT4050,1,4,4.18997,0,0,20.5,
1507,SBT4050,1,4,4.1899,0,0,20.5,
1507,SBT4050,1,4,4.1895,0,0,20.6,
1507,SBT4050,1,4,4.18949,0,0,20.5,
1507,SBT4050,1,4,4.1897,0,0,20.6,
1507,SBT4050,1,4,4.18957,0,0,20.6,
1507,SBT4050,1,4,4.18916,0,0,20.5,
1507,SBT4050,1,4,4.18911,0,0,20.6,
1507,SBT4050,1,4,4.18868,0,0,20.5,
1507,SBT4050,1,4,4.188784,0,0,20.6,
1507,SBT4050,1,4,4.18856,0,0,20.6,
1507,SBT4050,1,4,4.18831,0,0,20.6,
1507,SBT4050,1,4,4.18832,0,0,20.5,
1507,SBT4050,1,4,4.18812,0,0,20.6,
1507,SBT4050,1,4,4.18811,0,0,20.5,
1507,SBT4050,1,4,4.188166,0,0,20.6,
1507,SBT4050,1,4,4.187916,0,0,20.6,
1507,SBT4050,1,4,4.18817,0,0,20.6,
1507,SBT4050,1,4,4.18785,0,0,20.6,
1507,SBT4050,1,4,4.18736,0,0,20.5,
1507,SBT4050,1,4,4.18751,0,0,20.6,
1507,SBT4050,1,4,4.18742,0,0,20.6,
1507,SBT4050,1,4,4.18731,0,0,20.6,
1507,SBT4050,1,4,4.187184,0,0,20.6,
1507,SBT4050,1,4,4.18721,0,0,20.6,
1507,SBT4050,1,4,4.18689,0,0,20.6,
1507,SBT4050,1,4,4.18695,0,0,20.5,
1507,SBT4050,1,4,4.18706,0,0,20.5,
1507,SBT4050,1,4,4.186846,0,0,20.6,
1507,SBT4050,1,4,4.18682,0,0,20.6,
1507,SBT4050,1,4,4.1866,0,0,20.6,
1507,SBT4050,1,4,4.18662,0,0,20.6,
1507,SBT4050,1,4,4.1865,0,0,20.5,
1507,SBT4050,1,4,4.18641,0,0,20.5,
1507,SBT4050,1,4,4.186226,0,0,20.5,
1507,SBT4050,1,4,4.186042,0,0,20.6,
1507,SBT4050,1,4,4.18576,0,0,20.6,
1507,SBT4050,1,4,4.185884,0,0,20.6,
1507,SBT4050,1,4,4.18592,0,0,20.5,
1507,SBT4050,1,4,4.18588,0,0,20.5,
1507,SBT4050,1,4,4.1856,0,0,20.6,
1507,SBT4050,1,4,4.18555,0,0,20.6,
1507,SBT4050,1,4,4.18552,0,0,20.6,
1507,SBT4050,1,4,4.18558,0,0,20.5,
1507,SBT4050,1,4,4.185424,0,0,20.6,
1507,SBT4050,1,4,4.18534,0,0,20.5,
1507,SBT4050,1,4,4.185202,0,0,20.6,
1507,SBT4050,1,4,4.18499,0,0,20.5,
1507,SBT4050,1,4,4.18493,0,0,20.6,
1507,SBT4050,1,4,4.18508,0,0,20.6,
1507,SBT4050,1,4,4.18486,0,0,20.6,
1507,SBT4050,1,4,4.18476,0,0,20.6,
1507,SBT4050,1,4,4.18489,0,0,20.6,
1507,SBT4050,1,4,4.184942,0,0,20.6,
1507,SBT4050,1,4,4.18488,0,0,20.6,
1507,SBT4050,1,4,4.184546,0,0,20.6,
1507,SBT4050,1,4,4.18474,0,0,20.6,
1507,SBT4050,1,4,4.18445,0,0,20.6,
1507,SBT4050,1,4,4.1847,0,0,20.6,
1507,SBT4050,1,4,4.18418,0,0,20.6,
1507,SBT4050,1,4,4.18422,0,0,20.6,
1507,SBT4050,1,4,4.18401,0,0,20.5,
1507,SBT4050,1,4,4.18387,0,0,20.6,
1507,SBT4050,1,4,4.18387,0,0,20.6,
1507,SBT4050,1,4,4.183766,0,0,20.6,
1507,SBT4050,1,4,4.18341,0,0,20.5,
1507,SBT4050,1,4,4.18367,0,0,20.6,
1507,SBT4050,1,4,4.18374,0,0,20.6,
1507,SBT4050,1,4,4.18344,0,0,20.6,
1507,SBT4050,1,4,4.18355,0,0,20.6,
1507,SBT4050,1,4,4.18361,0,0,20.6,
1507,SBT4050,1,4,4.18368,0,0,20.6,
1507,SBT4050,1,4,4.18324,0,0,20.6,
1507,SBT4050,1,4,4.18333,0,0,20.6,
1507,SBT4050,1,4,4.183202,0,0,20.6,
1507,SBT4050,1,4,4.18327,0,0,20.5,
1507,SBT4050,1,4,4.18338,0,0,20.5,
1507,SBT4050,1,4,4.183468,0,0,20.6,
1507,SBT4050,1,4,4.183196,0,0,20.6,
1507,SBT4050,1,4,4.18304,0,0,20.6,
1507,SBT4050,1,4,4.183188,0,0,20.6,
1507,SBT4050,1,4,4.18289,0,0,20.6,
1507,SBT4050,1,4,4.183,0,0,20.6,
1507,SBT4050,1,4,4.18304,0,0,20.5,
1507,SBT4050,1,4,4.18262,0,0,20.5,
1507,SBT4050,1,4,4.18269,0,0,20.6,
1507,SBT4050,1,4,4.18257,0,0,20.6,
1507,SBT4050,1,4,4.182744,0,0,20.5,
1507,SBT4050,1,4,4.18253,0,0,20.5,
1507,SBT4050,1,4,4.18242,0,0,20.6,
1507,SBT4050,1,4,4.1823,0,0,20.5,
1507,SBT4050,1,4,4.18254,0,0,20.5,
1507,SBT4050,1,4,4.18224,0,0,20.5,
1507,SBT4050,1,4,4.18235,0,0,20.5,
1507,SBT4050,1,4,4.18218,0,0,20.5,
1507,SBT4050,1,4,4.18218,0,0,20.5,
1507,SBT4050,1,4,4.18238,0,0,20.5,
1507,SBT4050,1,4,4.18205,0,0,20.5,
1507,SBT4050,1,4,4.18204,0,0,20.5,
1507,SBT4050,1,4,4.182,0,0,20.5,
1507,SBT4050,1,4,4.181916,0,0,20.5,
1507,SBT4050,1,4,4.18195,0,0,20.5,
1507,SBT4050,1,4,4.182062,0,0,20.6,
1507,SBT4050,1,4,4.18196,0,0,20.5,
1507,SBT4050,1,4,4.18204,0,0,20.5,
1507,SBT4050,1,4,4.1816,0,0,20.5,
1507,SBT4050,1,4,4.18166,0,0,20.5,
1507,SBT4050,1,4,4.18169,0,0,20.5,
1507,SBT4050,1,4,4.181554,0,0,20.6,
1507,SBT4050,1,4,4.181594,0,0,20.5,
1507,SBT4050,1,4,4.18149,0,0,20.5,
1507,SBT4050,1,4,4.18151,0,0,20.5,
1507,SBT4050,1,4,4.18134,0,0,20.5,
1507,SBT4050,1,4,4.18121,0,0,20.5,
1507,SBT4050,1,4,4.18129,0,0,20.5,
1507,SBT4050,1,4,4.18128,0,0,20.5,
1507,SBT4050,1,4,4.18128,0,0,20.5,
1507,SBT4050,1,4,4.18127,0,0,20.5,
1507,SBT4050,1,4,4.181,0,0,20.5,
1507,SBT4050,1,4,4.18096,0,0,20.5,
1507,SBT4050,1,4,4.18118,0,0,20.5,
1507,SBT4050,1,4,4.18095,0,0,20.5,
1507,SBT4050,1,4,4.1812,0,0,20.5,
1507,SBT4050,1,4,4.18082,0,0,20.5,
1507,SBT4050,1,4,4.18091,0,0,20.5,
1507,SBT4050,1,4,4.18083,0,0,20.5,
1507,SBT4050,1,4,4.18101,0,0,20.5,
1507,SBT4050,1,4,4.18062,0,0,20.5,
1507,SBT4050,1,4,4.18081,0,0,20.6,
1507,SBT4050,1,4,4.18065,0,0,20.5,
1507,SBT4050,1,4,4.18067,0,0,20.6,
1507,SBT4050,1,4,4.18068,0,0,20.6,
1507,SBT4050,1,4,4.18078,0,0,20.5,
1507,SBT4050,1,4,4.180654,0,0,20.6,
1507,SBT4050,1,4,4.18081,0,0,20.5,
1507,SBT4050,1,4,4.18078,0,0,20.5,
1507,SBT4050,1,4,4.18053,0,0,20.5,
1507,SBT4050,1,4,4.18052,0,0,20.5,
1507,SBT4050,1,4,4.180152,0,0,20.6,
1507,SBT4050,1,4,4.18046,0,0,20.5,
1507,SBT4050,1,4,4.1801,0,0,20.5,
1507,SBT4050,1,4,4.18025,0,0,20.5,
1507,SBT4050,1,4,4.180186,0,0,20.5,
1507,SBT4050,1,4,4.18028,0,0,20.5,
1507,SBT4050,1,4,4.180408,0,0,20.5,
1507,SBT4050,1,4,4.180364,0,0,20.6,
1507,SBT4050,1,4,4.18034,0,0,20.6,
1507,SBT4050,1,4,4.18029,0,0,20.5,
1507,SBT4050,1,4,4.18004,0,0,20.5,
1507,SBT4050,1,4,4.18011,0,0,20.5,
1507,SBT4050,1,4,4.18013,0,0,20.5,
1507,SBT4050,1,4,4.179994,0,0,20.5,
1507,SBT4050,1,4,4.17999,0,0,20.6,
1507,SBT4050,1,4,4.18003,0,0,20.5,
1507,SBT4050,1,4,4.17982,0,0,20.5,
1507,SBT4050,1,4,4.17993,0,0,20.5,
1507,SBT4050,1,4,4.17972,0,0,20.6,
1507,SBT4050,1,4,4.17985,0,0,20.5,
1507,SBT4050,1,4,4.17978,0,0,20.6,
1507,SBT4050,1,4,4.17983,0,0,20.5,
1507,SBT4050,1,4,4.17961,0,0,20.5,
1507,SBT4050,1,4,4.1796,0,0,20.5,
1507,SBT4050,1,4,4.17964,0,0,20.5,
1507,SBT4050,1,4,4.17965,0,0,20.6,
1507,SBT4050,1,4,4.17928,0,0,20.5,
1507,SBT4050,1,4,4.17918,0,0,20.5,
1507,SBT4050,1,4,4.17928,0,0,20.6,
1507,SBT4050,1,4,4.17972,0,0,20.5,
1507,SBT4050,1,4,4.1795,0,0,20.6,
1507,SBT4050,1,4,4.17926,0,0,20.5,
1507,SBT4050,1,4,4.1794,0,0,20.5,
1507,SBT4050,1,4,4.17918,0,0,20.5,
1507,SBT4050,1,4,4.17908,0,0,20.5,
1507,SBT4050,1,4,4.1794,0,0,20.5,
1507,SBT4050,1,4,4.17928,0,0,20.5,
1507,SBT4050,1,4,4.17912,0,0,20.5,
1507,SBT4050,1,4,4.17909,0,0,20.5,
1507,SBT4050,1,4,4.17929,0,0,20.5,
1507,SBT4050,1,4,4.17926,0,0,20.5,
1507,SBT4050,1,4,4.1791,0,0,20.5,
1507,SBT4050,1,4,4.17902,0,0,20.5,
1507,SBT4050,1,4,4.17886,0,0,20.5,
1507,SBT4050,1,4,4.17934,0,0,20.5,
1507,SBT4050,1,4,4.17919,0,0,20.5,
1507,SBT4050,1,4,4.17905,0,0,20.5,
1507,SBT4050,1,4,4.1791,0,0,20.6,
1507,SBT4050,1,4,4.179122,0,0,20.5,
1507,SBT4050,1,4,4.17883,0,0,20.5,
1507,SBT4050,1,4,4.17899,0,0,20.6,
1507,SBT4050,1,4,4.17904,0,0,20.5,
1507,SBT4050,1,4,4.178932,0,0,20.6,
1507,SBT4050,1,4,4.17902,0,0,20.5,
1507,SBT4050,1,4,4.17898,0,0,20.6,
1507,SBT4050,1,4,4.17878,0,0,20.6,
1507,SBT4050,1,4,4.1788,0,0,20.6,
1507,SBT4050,1,4,4.17886,0,0,20.5,
1507,SBT4050,1,4,4.17876,0,0,20.5,
1507,SBT4050,1,4,4.17891,0,0,20.6,
1507,SBT4050,1,4,4.178796,0,0,20.6,
1507,SBT4050,1,4,4.17837,0,0,20.5,
1507,SBT4050,1,4,4.17862,0,0,20.6,
1507,SBT4050,1,4,4.17869,0,0,20.5,
1507,SBT4050,1,4,4.17821,0,0,20.6,
1507,SBT4050,1,4,4.17873,0,0,20.6,
1507,SBT4050,1,4,4.17825,0,0,20.6,
1507,SBT4050,1,4,4.17839,0,0,20.6,
1507,SBT4050,1,4,4.178654,0,0,20.6,
1507,SBT4050,1,4,4.17864,0,0,20.6,
1507,SBT4050,1,4,4.1786,0,0,20.6,
1507,SBT4050,1,4,4.17849,0,0,20.5,
1507,SBT4050,1,4,4.17821,0,0,20.6,
1507,SBT4050,1,4,4.1782,0,0,20.5,
1507,SBT4050,1,4,4.17831,0,0,20.5,
1507,SBT4050,1,4,4.17828,0,0,20.6,
1507,SBT4050,1,4,4.17809,0,0,20.6,
1507,SBT4050,1,4,4.17817,0,0,20.5,
1507,SBT4050,1,4,4.17821,0,0,20.5,
1507,SBT4050,1,4,4.1782,0,0,20.5,
1507,SBT4050,1,4,4.178332,0,0,20.6,
1507,SBT4050,1,4,4.17826,0,0,20.5,
1507,SBT4050,1,4,4.17805,0,0,20.5,
1507,SBT4050,1,4,4.177864,0,0,20.6,
1507,SBT4050,1,4,4.17809,0,0,20.5,
1507,SBT4050,1,4,4.17804,0,0,20.5,
1507,SBT4050,1,4,4.178156,0,0,20.6,
1507,SBT4050,1,4,4.17803,0,0,20.5,
1507,SBT4050,1,4,4.17803,0,0,20.5,
1507,SBT4050,1,4,4.17787,0,0,20.6,
1507,SBT4050,1,4,4.17807,0,0,20.6,
1507,SBT4050,1,4,4.17817,0,0,20.6,
1507,SBT4050,1,4,4.17791,0,0,20.6,
1507,SBT4050,1,4,4.17804,0,0,20.6,
1507,SBT4050,1,4,4.17794,0,0,20.6,
1507,SBT4050,1,4,4.17782,0,0,20.6,
1507,SBT4050,1,4,4.17787,0,0,20.6,
1507,SBT4050,1,4,4.1776,0,0,20.6,
1507,SBT4050,1,4,4.17795,0,0,20.5,
1507,SBT4050,1,4,4.17776,0,0,20.6,
1507,SBT4050,1,4,4.17765,0,0,20.5,
1507,SBT4050,1,4,4.17752,0,0,20.5,
1507,SBT4050,1,4,4.17745,0,0,20.5,
1507,SBT4050,1,4,4.17766,0,0,20.5,
1507,SBT4050,1,4,4.17753,0,0,20.5,
1507,SBT4050,1,4,4.17773,0,0,20.5,
1507,SBT4050,1,4,4.17749,0,0,20.6,
1507,SBT4050,1,4,4.1776,0,0,20.5,
1507,SBT4050,1,4,4.1777,0,0,20.6,
1507,SBT4050,1,4,4.177774,0,0,20.6,
1507,SBT4050,1,4,4.17767,0,0,20.5,
1507,SBT4050,1,4,4.17777,0,0,20.6,
1507,SBT4050,1,4,4.17758,0,0,20.6,
1507,SBT4050,1,4,4.17747,0,0,20.6,
1507,SBT4050,1,4,4.17743,0,0,20.5,
1507,SBT4050,1,4,4.17711,0,0,20.5,
1507,SBT4050,1,4,4.177174,0,0,20.5,
1507,SBT4050,1,4,4.17723,0,0,20.5,
1507,SBT4050,1,4,4.1772,0,0,20.5,
1507,SBT4050,1,4,4.1771,0,0,20.5,
1507,SBT4050,1,4,4.177102,0,0,20.5,
1507,SBT4050,1,4,4.17769,0,0,20.5,
1507,SBT4050,1,4,4.17758,0,0,20.6,
1507,SBT4050,1,4,4.17732,0,0,20.5,
1507,SBT4050,1,4,4.1773,0,0,20.6,
1507,SBT4050,1,4,4.17717,0,0,20.6,
1507,SBT4050,1,4,4.17713,0,0,20.5,
1507,SBT4050,1,4,4.17722,0,0,20.5,
1507,SBT4050,1,4,4.17703,0,0,20.5,
1507,SBT4050,1,4,4.176998,0,0,20.6,
1507,SBT4050,1,4,4.177156,0,0,20.5,
1507,SBT4050,1,4,4.17728,0,0,20.5,
1507,SBT4050,1,4,4.17718,0,0,20.5,
1507,SBT4050,1,4,4.17725,0,0,20.5,
1507,SBT4050,1,4,4.17705,0,0,20.6,
1507,SBT4050,1,4,4.17703,0,0,20.5,
1507,SBT4050,1,4,4.1771,0,0,20.5,
1507,SBT4050,1,4,4.17717,0,0,20.6,
1507,SBT4050,1,4,4.17731,0,0,20.6,
1507,SBT4050,1,4,4.177288,0,0,20.6,
1507,SBT4050,1,4,4.1769,0,0,20.6,
1507,SBT4050,1,4,4.176698,0,0,20.6,
1507,SBT4050,1,4,4.17715,0,0,20.6,
1507,SBT4050,1,4,4.17707,0,0,20.6,
1507,SBT4050,1,4,4.17718,0,0,20.6,
1507,SBT4050,1,4,4.17692,0,0,20.6,
1507,SBT4050,1,4,4.176918,0,0,20.6,
1507,SBT4050,1,4,4.17674,0,0,20.6,
1507,SBT4050,1,4,4.17691,0,0,20.6,
1507,SBT4050,1,4,4.17674,0,0,20.6,
1507,SBT4050,1,4,4.17666,0,0,20.6,
1507,SBT4050,1,4,4.176546,0,0,20.6,
1507,SBT4050,1,4,4.17669,0,0,20.6,
1507,SBT4050,1,4,4.17687,0,0,20.6,
1507,SBT4050,1,4,4.17645,0,0,20.6,
1507,SBT4050,1,4,4.17652,0,0,20.6,
1507,SBT4050,1,4,4.176148,0,0,20.6,
1507,SBT4050,1,4,4.17663,0,0,20.6,
1507,SBT4050,1,4,4.17647,0,0,20.6,
1507,SBT4050,1,4,4.17652,0,0,20.6,
1507,SBT4050,1,4,4.17671,0,0,20.6,
1507,SBT4050,1,4,4.17674,0,0,20.6,
1507,SBT4050,1,4,4.1768,0,0,20.6,
1507,SBT4050,1,4,4.17658,0,0,20.6,
1507,SBT4050,1,4,4.1765,0,0,20.6,
1507,SBT4050,1,4,4.176452,0,0,20.6,
1507,SBT4050,1,4,4.17628,0,0,20.6,
1507,SBT4050,1,4,4.17627,0,0,20.6,
1507,SBT4050,1,4,4.17637,0,0,20.6,
1507,SBT4050,1,4,4.17648,0,0,20.6,
1507,SBT4050,1,4,4.17619,0,0,20.6,
1507,SBT4050,1,4,4.17642,0,0,20.6,
1507,SBT4050,1,4,4.176424,0,0,20.6,
1507,SBT4050,1,4,4.176346,0,0,20.6,
1507,SBT4050,1,4,4.17618,0,0,20.6,
1507,SBT4050,1,4,4.17638,0,0,20.6,
1507,SBT4050,1,4,4.17644,0,0,20.6,
1507,SBT4050,1,4,4.17629,0,0,20.6,
1507,SBT4050,1,4,4.17618,0,0,20.6,
1507,SBT4050,1,4,4.17629,0,0,20.6,
1507,SBT4050,1,4,4.17622,0,0,20.6,
1507,SBT4050,1,4,4.176268,0,0,20.6,
1507,SBT4050,1,4,4.17615,0,0,20.6,
1507,SBT4050,1,4,4.17657,0,0,20.6,
1507,SBT4050,1,4,4.176248,0,0,20.6,
1507,SBT4050,1,4,4.17648,0,0,20.6,
1507,SBT4050,1,4,4.1762,0,0,20.6,
1507,SBT4050,1,4,4.17618,0,0,20.7,
1507,SBT4050,1,4,4.17646,0,0,20.6,
1507,SBT4050,1,4,4.176334,0,0,20.6,
1507,SBT4050,1,4,4.17635,0,0,20.6,
1507,SBT4050,1,4,4.17626,0,0,20.7,
1507,SBT4050,1,4,4.17626,0,0,20.6,
1507,SBT4050,1,4,4.17615,0,0,20.6,
1507,SBT4050,1,4,4.17649,0,0,20.6,
1507,SBT4050,1,4,4.1759,0,0,20.6,
1507,SBT4050,1,4,4.17615,0,0,20.6,
1507,SBT4050,1,4,4.175904,0,0,20.6,
1507,SBT4050,1,4,4.17631,0,0,20.7,
1507,SBT4050,1,4,4.1762,0,0,20.6,
1507,SBT4050,1,4,4.17633,0,0,20.6,
1507,SBT4050,1,4,4.17616,0,0,20.6,
1507,SBT4050,1,4,4.1763,0,0,20.6,
1507,SBT4050,1,4,4.17613,0,0,20.6,
1507,SBT4050,1,4,4.176018,0,0,20.6,
1507,SBT4050,1,4,4.17602,0,0,20.7,
1507,SBT4050,1,4,4.17601,0,0,20.7,
1507,SBT4050,1,4,4.175834,0,0,20.6,
1507,SBT4050,1,4,4.1759,0,0,20.6,
1507,SBT4050,1,4,4.17593,0,0,20.6,
1507,SBT4050,1,4,4.17573,0,0,20.6,
1507,SBT4050,1,4,4.176022,0,0,20.6,
1507,SBT4050,1,4,4.17583,0,0,20.6,
1507,SBT4050,1,4,4.17581,0,0,20.6,
1507,SBT4050,1,4,4.17586,0,0,20.6,
1507,SBT4050,1,4,4.175812,0,0,20.6,
1507,SBT4050,1,4,4.175858,0,0,20.7,
1507,SBT4050,1,4,4.17551,0,0,20.7,
1507,SBT4050,1,4,4.17575,0,0,20.6,
1507,SBT4050,1,4,4.17584,0,0,20.6,
1507,SBT4050,1,4,4.175708,0,0,20.7,
1507,SBT4050,1,4,4.17536,0,0,20.7,
1507,SBT4050,1,4,4.17571,0,0,20.6,
1507,SBT4050,1,4,4.17561,0,0,20.6,
1507,SBT4050,1,4,4.17585,0,0,20.7,
1507,SBT4050,1,4,4.17596,0,0,20.7,
1507,SBT4050,1,4,4.176062,0,0,20.7,
1507,SBT4050,1,4,4.17568,0,0,20.7,
1507,SBT4050,1,4,4.17558,0,0,20.7,
1507,SBT4050,1,4,4.17575,0,0,20.7,
1507,SBT4050,1,4,4.17569,0,0,20.7,
1507,SBT4050,1,4,4.17593,0,0,20.6,
1507,SBT4050,1,4,4.17562,0,0,20.7,
1507,SBT4050,1,4,4.17556,0,0,20.7,
1507,SBT4050,1,4,4.17597,0,0,20.7,
1507,SBT4050,1,4,4.1757,0,0,20.7,
1507,SBT4050,1,4,4.17562,0,0,20.7,
1507,SBT4050,1,4,4.17557,0,0,20.7,
1507,SBT4050,1,4,4.17553,0,0,20.7,
1507,SBT4050,1,4,4.17572,0,0,20.6,
1507,SBT4050,1,4,4.175504,0,0,20.7,
1507,SBT4050,1,4,4.17545,0,0,20.7,
1507,SBT4050,1,4,4.17559,0,0,20.7,
1507,SBT4050,1,4,4.17547,0,0,20.7,
1507,SBT4050,1,4,4.17549,0,0,20.7,
1507,SBT4050,1,4,4.175396,0,0,20.7,
1507,SBT4050,1,4,4.17578,0,0,20.7,
1507,SBT4050,1,4,4.17534,0,0,20.7,
1507,SBT4050,1,4,4.17553,0,0,20.7,
1507,SBT4050,1,4,4.17528,0,0,20.7,
1507,SBT4050,1,4,4.17534,0,0,20.7,
1507,SBT4050,1,4,4.17549,0,0,20.6,
1507,SBT4050,1,4,4.17543,0,0,20.7,
1507,SBT4050,1,4,4.17529,0,0,20.7,
1507,SBT4050,1,4,4.17561,0,0,20.7,
1507,SBT4050,1,4,4.17539,0,0,20.7,
1507,SBT4050,1,4,4.17526,0,0,20.7,
1507,SBT4050,1,4,4.17543,0,0,20.7,
1507,SBT4050,1,4,4.17521,0,0,20.7,
1507,SBT4050,1,4,4.175198,0,0,20.7,
1507,SBT4050,1,4,4.17493,0,0,20.7,
1507,SBT4050,1,4,4.17548,0,0,20.7,
1507,SBT4050,1,4,4.17518,0,0,20.7,
1507,SBT4050,1,4,4.175074,0,0,20.7,
1507,SBT4050,1,4,4.17525,0,0,20.7,
1507,SBT4050,1,4,4.17506,0,0,20.7,
1507,SBT4050,1,4,4.17514,0,0,20.7,
1507,SBT4050,1,4,4.17526,0,0,20.7,
1507,SBT4050,1,4,4.17511,0,0,20.7,
1507,SBT4050,1,4,4.17508,0,0,20.7,
1507,SBT4050,1,4,4.17505,0,0,20.7,
1507,SBT4050,1,4,4.17504,0,0,20.7,
1507,SBT4050,1,4,4.17497,0,0,20.7,
1507,SBT4050,1,4,4.175,0,0,20.7,
1507,SBT4050,1,4,4.17512,0,0,20.7,
1507,SBT4050,1,4,4.17497,0,0,20.7,
1507,SBT4050,1,4,4.175062,0,0,20.6,
1507,SBT4050,1,4,4.17517,0,0,20.7,
1507,SBT4050,1,4,4.17496,0,0,20.7,
1507,SBT4050,1,4,3.99433,-9.994,0.08,20.7,
1507,SBT4050,1,4,3.88745,-10,22.301,20.6,
1507,SBT4050,1,4,3.84758,-9.998,44.522,20.8,
1507,SBT4050,1,4,3.8194,-10.001,66.743,20.9,
1507,SBT4050,1,4,3.79814,-9.998,88.964,21.2,
1507,SBT4050,1,4,3.78127,-9.999,111.185,21.4,
1507,SBT4050,1,4,3.76762,-9.999,133.406,21.7,
1507,SBT4050,1,4,3.75628,-9.998,155.626,21.9,
1507,SBT4050,1,4,3.746094,-9.999,177.847,22.1,
1507,SBT4050,1,4,3.73684,-9.999,200.068,22.3,
1507,SBT4050,1,4,3.72863,-9.999,222.289,22.5,
1507,SBT4050,1,4,3.72064,-9.999,244.509,22.8,
1507,SBT4050,1,4,3.71296,-9.999,266.73,22.9,
1507,SBT4050,1,4,3.705496,-10.001,288.95,23.2,
1507,SBT4050,1,4,3.69829,-9.999,311.171,23.3,
1507,SBT4050,1,4,3.69082,-10,333.392,23.5,
1507,SBT4050,1,4,3.68376,-10.001,355.614,23.6,
1507,SBT4050,1,4,3.67652,-10,377.836,23.7,
1507,SBT4050,1,4,3.66911,-9.998,400.057,23.9,
1507,SBT4050,1,4,3.66176,-10,422.279,24.1,
1507,SBT4050,1,4,3.65437,-10.001,444.5,24.3,
1507,SBT4050,1,4,3.646602,-10,466.722,24.4,
1507,SBT4050,1,4,3.6393,-10,488.944,24.6,
1507,SBT4050,1,4,3.631572,-9.999,511.165,24.7,
1507,SBT4050,1,4,3.623946,-9.999,533.386,24.8,
1507,SBT4050,1,4,3.61637,-9.998,555.607,24.9,
1507,SBT4050,1,4,3.60869,-9.998,577.828,25.1,
1507,SBT4050,1,4,3.60094,-9.999,600.049,25.2,
1507,SBT4050,1,4,3.59314,-9.999,622.269,25.3,
1507,SBT4050,1,4,3.58542,-10,644.49,25.4,
1507,SBT4050,1,4,3.57763,-10,666.712,25.5,
1507,SBT4050,1,4,3.569766,-9.998,688.933,25.6,
1507,SBT4050,1,4,3.56189,-9.998,711.154,25.6,
1507,SBT4050,1,4,3.55414,-9.998,733.375,25.7,
1507,SBT4050,1,4,3.54603,-9.999,755.595,25.8,
1507,SBT4050,1,4,3.53804,-9.999,777.816,25.8,
1507,SBT4050,1,4,3.53019,-9.999,800.037,26,
1507,SBT4050,1,4,3.5218,-9.999,822.257,26,
1507,SBT4050,1,4,3.51377,-9.999,844.478,26,
1507,SBT4050,1,4,3.50564,-9.998,866.699,26.2,
1507,SBT4050,1,4,3.49736,-9.998,888.92,26.2,
1507,SBT4050,1,4,3.488976,-10,911.141,26.3,
1507,SBT4050,1,4,3.48084,-9.998,933.362,26.4,
1507,SBT4050,1,4,3.472472,-9.998,955.583,26.4,
1507,SBT4050,1,4,3.4642,-10,977.804,26.5,
1507,SBT4050,1,4,3.45597,-9.998,1000.025,26.5,
1507,SBT4050,1,4,3.44753,-9.998,1022.246,26.5,
1507,SBT4050,1,4,3.43947,-10,1044.467,26.6,
1507,SBT4050,1,4,3.43125,-10,1066.688,26.7,
1507,SBT4050,1,4,3.42302,-10.001,1088.909,26.7,
1507,SBT4050,1,4,3.41485,-10,1111.131,26.7,
1507,SBT4050,1,4,3.40679,-10.001,1133.352,26.8,
1507,SBT4050,1,4,3.399064,-9.999,1155.573,26.8,
1507,SBT4050,1,4,3.39149,-10,1177.794,26.9,
1507,SBT4050,1,4,3.38364,-10,1200.015,26.9,
1507,SBT4050,1,4,3.37542,-10,1222.237,27,
1507,SBT4050,1,4,3.36748,-10.001,1244.458,27,
1507,SBT4050,1,4,3.36005,-9.999,1266.679,27.1,
1507,SBT4050,1,4,3.35232,-10.001,1288.9,27.1,
1507,SBT4050,1,4,3.34514,-10.001,1311.122,27.2,
1507,SBT4050,1,4,3.33771,-9.998,1333.343,27.2,
1507,SBT4050,1,4,3.33077,-10,1355.565,27.2,
1507,SBT4050,1,4,3.32313,-10,1377.786,27.2,
1507,SBT4050,1,4,3.31602,-10,1400.007,27.2,
1507,SBT4050,1,4,3.30889,-10.001,1422.228,27.3,
1507,SBT4050,1,4,3.30144,-10,1444.449,27.3,
1507,SBT4050,1,4,3.294274,-9.997,1466.67,27.4,
1507,SBT4050,1,4,3.28689,-9.999,1488.892,27.4,
1507,SBT4050,1,4,3.27952,-10.001,1511.113,27.5,
1507,SBT4050,1,4,3.272148,-9.999,1533.334,27.5,
1507,SBT4050,1,4,3.2649,-10,1555.555,27.5,
1507,SBT4050,1,4,3.25743,-10,1577.776,27.5,
1507,SBT4050,1,4,3.25007,-10,1599.997,27.5,
1507,SBT4050,1,4,3.24256,-9.999,1622.219,27.6,
1507,SBT4050,1,4,3.23495,-9.999,1644.44,27.6,
1507,SBT4050,1,4,3.22713,-9.999,1666.66,27.7,
1507,SBT4050,1,4,3.219598,-9.999,1688.881,27.8,
1507,SBT4050,1,4,3.21155,-9.999,1711.102,27.8,
1507,SBT4050,1,4,3.2038,-9.999,1733.323,27.9,
1507,SBT4050,1,4,3.19576,-9.999,1755.544,27.9,
1507,SBT4050,1,4,3.18729,-10,1777.765,28,
1507,SBT4050,1,4,3.17873,-9.999,1799.986,28.1,
1507,SBT4050,1,4,3.170086,-9.999,1822.207,28.1,
1507,SBT4050,1,4,3.1611,-10.001,1844.428,28.1,
1507,SBT4050,1,4,3.15172,-10,1866.649,28.1,
1507,SBT4050,1,4,3.141989,-10,1888.871,28.2,
1507,SBT4050,1,4,3.13166,-9.998,1911.092,28.4,
1507,SBT4050,1,4,3.12137,-10,1933.313,28.4,
1507,SBT4050,1,4,3.11016,-9.998,1955.535,28.5,
1507,SBT4050,1,4,3.09844,-10,1977.756,28.5,
1507,SBT4050,1,4,3.08594,-10,1999.978,28.6,
1507,SBT4050,1,4,3.0729,-9.999,2022.199,28.6,
1507,SBT4050,1,4,3.05873,-10.001,2044.419,28.7,
1507,SBT4050,1,4,3.043038,-9.999,2066.64,28.8,
1507,SBT4050,1,4,3.02568,-10,2088.862,28.9,
1507,SBT4050,1,4,3.006988,-10,2111.083,28.9,
1507,SBT4050,1,4,2.98627,-10,2133.305,29,
1507,SBT4050,1,4,2.96322,-10,2155.527,29.1,
1507,SBT4050,1,4,2.93718,-10,2177.748,29.1,
1507,SBT4050,1,4,2.90804,-10,2199.97,29.4,
1507,SBT4050,1,4,2.87421,-10,2222.191,29.4,
1507,SBT4050,1,4,2.835048,-9.998,2244.412,29.5,
1507,SBT4050,1,4,2.78842,-10.001,2266.634,29.7,
1507,SBT4050,1,4,2.73301,-9.998,2288.855,29.8,
1507,SBT4050,1,4,2.66638,-10,2311.076,29.9,
1507,SBT4050,1,4,2.58437,-9.999,2333.298,30.1,
1507,SBT4050,1,4,2.81125,0,2351.886,30.2,
1507,SBT4050,1,4,2.97566,0,2351.886,30.4,
1507,SBT4050,1,4,3.0165,0,2351.886,30.3,
1507,SBT4050,1,4,3.03815,0,2351.886,30,
1507,SBT4050,1,4,3.051536,0,2351.886,29.7,
1507,SBT4050,1,4,3.06061,0,2351.886,29.3,
1507,SBT4050,1,4,3.06748,0,2351.886,29,
1507,SBT4050,1,4,3.07282,0,2351.886,28.7,
1507,SBT4050,1,4,3.07734,0,2351.886,28.4,
1507,SBT4050,1,4,3.08074,0,2351.886,28,
1507,SBT4050,1,4,3.08393,0,2351.886,27.7,
1507,SBT4050,1,4,3.0865,0,2351.886,27.4,
1507,SBT4050,1,4,3.089,0,2351.886,27.1,
1507,SBT4050,1,4,3.09082,0,2351.886,26.8,
1507,SBT4050,1,4,3.092693,0,2351.886,26.6,
1507,SBT4050,1,4,3.09439,0,2351.886,26.4,
1507,SBT4050,1,4,3.09589,0,2351.886,26.1,
1507,SBT4050,1,4,3.09699,0,2351.886,25.9,
1507,SBT4050,1,4,3.098577,0,2351.886,25.7,
1507,SBT4050,1,4,3.099601,0,2351.886,25.4,
1507,SBT4050,1,4,3.10067,0,2351.886,25.2,
1507,SBT4050,1,4,3.10173,0,2351.886,25,
1507,SBT4050,1,4,3.10285,0,2351.886,24.8,
1507,SBT4050,1,4,3.103399,0,2351.886,24.7,
1507,SBT4050,1,4,3.10435,0,2351.886,24.5,
1507,SBT4050,1,4,3.105,0,2351.886,24.4,
1507,SBT4050,1,4,3.105705,0,2351.886,24.3,
1507,SBT4050,1,4,3.10637,0,2351.886,24.1,
1507,SBT4050,1,4,3.10729,0,2351.886,24,
1507,SBT4050,1,4,3.107984,0,2351.886,23.8,
1507,SBT4050,1,4,3.10875,0,2351.886,23.7,
1507,SBT4050,1,4,3.109179,0,2351.886,23.6,
1507,SBT4050,1,4,3.10993,0,2351.886,23.4,
1507,SBT4050,1,4,3.11029,0,2351.886,23.3,
1507,SBT4050,1,4,3.1112,0,2351.886,23.2,
1507,SBT4050,1,4,3.11153,0,2351.886,23.1,
1507,SBT4050,1,4,3.112122,0,2351.886,23,
1507,SBT4050,1,4,3.11262,0,2351.886,22.9,
1507,SBT4050,1,4,3.11291,0,2351.886,22.8,
1507,SBT4050,1,4,3.11346,0,2351.886,22.8,
1507,SBT4050,1,4,3.11365,0,2351.886,22.7,
1507,SBT4050,1,4,3.11408,0,2351.886,22.6,
1507,SBT4050,1,4,3.11446,0,2351.886,22.6,
1507,SBT4050,1,4,3.114901,0,2351.886,22.5,
1507,SBT4050,1,4,3.115361,0,2351.886,22.4,
1507,SBT4050,1,4,3.11584,0,2351.886,22.3,
1507,SBT4050,1,4,3.11638,0,2351.886,22.3,
1507,SBT4050,1,4,3.11676,0,2351.886,22.2,
1507,SBT4050,1,4,3.11702,0,2351.886,22.2,
1507,SBT4050,1,4,3.11756,0,2351.886,22.1,
1507,SBT4050,1,4,3.11786,0,2351.886,22.1,
1507,SBT4050,1,4,3.11808,0,2351.886,22,
1507,SBT4050,1,4,3.118475,0,2351.886,22,
1507,SBT4050,1,4,3.11854,0,2351.886,21.9,
1507,SBT4050,1,4,3.118961,0,2351.886,21.9,
1507,SBT4050,1,4,3.11956,0,2351.886,21.8,
1507,SBT4050,1,4,3.11954,0,2351.886,21.8,
1507,SBT4050,1,4,3.11996,0,2351.886,21.8,
1507,SBT4050,1,4,3.120127,0,2351.886,21.7,
1507,SBT4050,1,4,3.12056,0,2351.886,21.7,
1507,SBT4050,1,4,3.12083,0,2351.886,21.7,
1507,SBT4050,1,4,3.12099,0,2351.886,21.6,
1507,SBT4050,1,4,3.12109,0,2351.886,21.6,
1507,SBT4050,1,4,3.12137,0,2351.886,21.6,
1507,SBT4050,1,4,3.1214,0,2351.886,21.6,
1507,SBT4050,1,4,3.12184,0,2351.886,21.5,
1507,SBT4050,1,4,3.12245,0,2351.886,21.5,
1507,SBT4050,1,4,3.12259,0,2351.886,21.5,
1507,SBT4050,1,4,3.122775,0,2351.886,21.5,
1507,SBT4050,1,4,3.12304,0,2351.886,21.5,
1507,SBT4050,1,4,3.123467,0,2351.886,21.4,
1507,SBT4050,1,4,3.12374,0,2351.886,21.4,
1507,SBT4050,1,4,3.123823,0,2351.886,21.5,
1507,SBT4050,1,4,3.124246,0,2351.886,21.4,
1507,SBT4050,1,4,3.124357,0,2351.886,21.4,
1507,SBT4050,1,4,3.1246,0,2351.886,21.4,
1507,SBT4050,1,4,3.1249,0,2351.886,21.4,
1507,SBT4050,1,4,3.1249,0,2351.886,21.4,
1507,SBT4050,1,4,3.12519,0,2351.886,21.3,
1507,SBT4050,1,4,3.12539,0,2351.886,21.3,
1507,SBT4050,1,4,3.1256,0,2351.886,21.3,
1507,SBT4050,1,4,3.12553,0,2351.886,21.3,
1507,SBT4050,1,4,3.12598,0,2351.886,21.3,
1507,SBT4050,1,4,3.1263,0,2351.886,21.3,
1507,SBT4050,1,4,3.12623,0,2351.886,21.3,
1507,SBT4050,1,4,3.12653,0,2351.886,21.3,
1507,SBT4050,1,4,3.12693,0,2351.886,21.2,
1507,SBT4050,1,4,3.12696,0,2351.886,21.3,
1507,SBT4050,1,4,3.12705,0,2351.886,21.2,
1507,SBT4050,1,4,3.127298,0,2351.886,21.2,
1507,SBT4050,1,4,3.1274,0,2351.886,21.2,
1507,SBT4050,1,4,3.12772,0,2351.886,21.2,
1507,SBT4050,1,4,3.12788,0,2351.886,21.2,
1507,SBT4050,1,4,3.12819,0,2351.886,21.2,
1507,SBT4050,1,4,3.128242,0,2351.886,21.2,
1507,SBT4050,1,4,3.12848,0,2351.886,21.2,
1507,SBT4050,1,4,3.128594,0,2351.886,21.2,
1507,SBT4050,1,4,3.128835,0,2351.886,21.2,
1507,SBT4050,1,4,3.12897,0,2351.886,21.2,
1507,SBT4050,1,4,3.129336,0,2351.886,21.2,
1507,SBT4050,1,4,3.129316,0,2351.886,21.2,
1507,SBT4050,1,4,3.12966,0,2351.886,21.1,
1507,SBT4050,1,4,3.12975,0,2351.886,21.1,
1507,SBT4050,1,4,3.13001,0,2351.886,21.2,
1507,SBT4050,1,4,3.13008,0,2351.886,21.2,
1507,SBT4050,1,4,3.130413,0,2351.886,21.2,
1507,SBT4050,1,4,3.13044,0,2351.886,21.2,
1507,SBT4050,1,4,3.13035,0,2351.886,21.2,
1507,SBT4050,1,4,3.13082,0,2351.886,21.1,
1507,SBT4050,1,4,3.13097,0,2351.886,21.1,
1507,SBT4050,1,4,3.13143,0,2351.886,21.1,
1507,SBT4050,1,4,3.13127,0,2351.886,21.1,
1507,SBT4050,1,4,3.13168,0,2351.886,21.1,
1507,SBT4050,1,4,3.29485,4.0001,2351.886,21.1,
1507,SBT4050,1,4,3.35221,4.0001,2351.886,21.1,
1507,SBT4050,1,4,3.39373,3.9995,2351.886,21.1,
1507,SBT4050,1,4,3.42652,4.0001,2351.886,21.1,
1507,SBT4050,1,4,3.453956,3.9997,2351.886,21.1,
1507,SBT4050,1,4,3.477116,4.0006,2351.886,21.1,
1507,SBT4050,1,4,3.497454,4.0003,2351.886,21.2,
1507,SBT4050,1,4,3.5146,3.9998,2351.886,21.2,
1507,SBT4050,1,4,3.529926,3.9997,2351.886,21.3,
1507,SBT4050,1,4,3.54238,4.0001,2351.886,21.3,
1507,SBT4050,1,4,3.55366,4,2351.886,21.3,
1507,SBT4050,1,4,3.56273,4.0003,2351.886,21.4,
1507,SBT4050,1,4,3.57033,4.0001,2351.886,21.4,
1507,SBT4050,1,4,3.57606,4,2351.886,21.5,
1507,SBT4050,1,4,3.581208,4,2351.886,21.6,
1507,SBT4050,1,4,3.58515,3.9994,2351.886,21.6,
1507,SBT4050,1,4,3.58893,4,2351.886,21.7,
1507,SBT4050,1,4,3.59274,3.9997,2351.886,21.8,
1507,SBT4050,1,4,3.59602,3.9994,2351.886,21.8,
1507,SBT4050,1,4,3.59994,4,2351.886,21.8,
1507,SBT4050,1,4,3.603216,4.0003,2351.886,21.9,
1507,SBT4050,1,4,3.60673,3.9997,2351.886,21.9,
1507,SBT4050,1,4,3.61017,3.9997,2351.886,22,
1507,SBT4050,1,4,3.61359,3.9999,2351.886,22,
1507,SBT4050,1,4,3.617,4.0003,2351.886,22.1,
1507,SBT4050,1,4,3.62079,4.0003,2351.886,22.1,
1507,SBT4050,1,4,3.62405,4.0003,2351.886,22.2,
1507,SBT4050,1,4,3.627674,3.9999,2351.886,22.2,
1507,SBT4050,1,4,3.63068,4,2351.886,22.2,
1507,SBT4050,1,4,3.63435,3.9991,2351.886,22.3,
1507,SBT4050,1,4,3.63725,3.9995,2351.886,22.3,
1507,SBT4050,1,4,3.640942,3.9998,2351.886,22.4,
1507,SBT4050,1,4,3.6438,3.9997,2351.886,22.4,
1507,SBT4050,1,4,3.64746,4,2351.886,22.4,
1507,SBT4050,1,4,3.65046,4.0005,2351.886,22.4,
1507,SBT4050,1,4,3.654,3.9999,2351.886,22.5,
1507,SBT4050,1,4,3.65669,3.9994,2351.886,22.5,
1507,SBT4050,1,4,3.66011,3.9999,2351.886,22.5,
1507,SBT4050,1,4,3.66285,3.9997,2351.886,22.6,
1507,SBT4050,1,4,3.66648,4.0002,2351.886,22.6,
1507,SBT4050,1,4,3.66946,4,2351.886,22.6,
1507,SBT4050,1,4,3.67298,4.0002,2351.886,22.6,
1507,SBT4050,1,4,3.675786,3.9999,2351.886,22.7,
1507,SBT4050,1,4,3.67931,4,2351.886,22.7,
1507,SBT4050,1,4,3.68231,4,2351.886,22.7,
1507,SBT4050,1,4,3.68545,3.9999,2351.886,22.7,
1507,SBT4050,1,4,3.68909,4.0007,2351.886,22.7,
1507,SBT4050,1,4,3.69202,4.0001,2351.886,22.8,
1507,SBT4050,1,4,3.69537,3.9999,2351.886,22.7,
1507,SBT4050,1,4,3.698738,4.0002,2351.886,22.8,
1507,SBT4050,1,4,3.701962,4.0005,2351.886,22.8,
1507,SBT4050,1,4,3.70481,3.9996,2351.886,22.8,
1507,SBT4050,1,4,3.70782,4.0001,2351.886,22.8,
1507,SBT4050,1,4,3.71057,4.0004,2351.886,22.8,
1507,SBT4050,1,4,3.71359,4.0004,2351.886,22.9,
1507,SBT4050,1,4,3.71615,3.9995,2351.886,22.8,
1507,SBT4050,1,4,3.71874,3.9996,2351.886,22.9,
1507,SBT4050,1,4,3.72131,4.0001,2351.886,22.9,
1507,SBT4050,1,4,3.723888,4.0002,2351.886,22.9,
1507,SBT4050,1,4,3.725712,4.0004,2351.886,22.9,
1507,SBT4050,1,4,3.72817,3.9995,2351.886,22.9,
1507,SBT4050,1,4,3.72984,3.9998,2351.886,22.9,
1507,SBT4050,1,4,3.73236,3.9998,2351.886,22.9,
1507,SBT4050,1,4,3.73406,3.9999,2351.886,22.9,
1507,SBT4050,1,4,3.736362,3.9998,2351.886,22.9,
1507,SBT4050,1,4,3.73781,4.0001,2351.886,22.9,
1507,SBT4050,1,4,3.74028,4.0001,2351.886,22.9,
1507,SBT4050,1,4,3.741768,3.9998,2351.886,22.9,
1507,SBT4050,1,4,3.74388,4.0001,2351.886,22.9,
1507,SBT4050,1,4,3.7458,3.9998,2351.886,22.9,
1507,SBT4050,1,4,3.74791,3.9998,2351.886,23,
1507,SBT4050,1,4,3.74963,4,2351.886,23,
1507,SBT4050,1,4,3.75192,3.9995,2351.886,23,
1507,SBT4050,1,4,3.754036,4.0003,2351.886,23,
1507,SBT4050,1,4,3.75606,4,2351.886,23,
1507,SBT4050,1,4,3.75823,3.9998,2351.886,23,
1507,SBT4050,1,4,3.75987,3.9998,2351.886,23,
1507,SBT4050,1,4,3.76202,4.0004,2351.886,23,
1507,SBT4050,1,4,3.76412,4,2351.886,23.1,
1507,SBT4050,1,4,3.76618,3.9998,2351.886,23,
1507,SBT4050,1,4,3.768162,4,2351.886,23,
1507,SBT4050,1,4,3.770394,4,2351.886,23,
1507,SBT4050,1,4,3.7725,4.0004,2351.886,23,
1507,SBT4050,1,4,3.77474,4.0003,2351.886,23,
1507,SBT4050,1,4,3.77665,4.0001,2351.886,23.1,
1507,SBT4050,1,4,3.77909,4.0001,2351.886,23.1,
1507,SBT4050,1,4,3.78073,4.0006,2351.886,23.1,
1507,SBT4050,1,4,3.783234,3.9998,2351.886,23.1,
1507,SBT4050,1,4,3.78522,4.0003,2351.886,23.1,
1507,SBT4050,1,4,3.78781,3.9997,2351.886,23.1,
1507,SBT4050,1,4,3.78986,3.9995,2351.886,23.1,
1507,SBT4050,1,4,3.7923,4.0004,2351.886,23.1,
1507,SBT4050,1,4,3.7942,4,2351.886,23.2,
1507,SBT4050,1,4,3.796544,3.9998,2351.886,23.2,
1507,SBT4050,1,4,3.79838,4,2351.886,23.2,
1507,SBT4050,1,4,3.8012,4,2351.886,23.2,
1507,SBT4050,1,4,3.80318,4.0007,2351.886,23.2,
1507,SBT4050,1,4,3.8051,4.0001,2351.886,23.2,
1507,SBT4050,1,4,3.80739,4.0003,2351.886,23.2,
1507,SBT4050,1,4,3.80976,4,2351.886,23.2,
1507,SBT4050,1,4,3.81201,3.9998,2351.886,23.2,
1507,SBT4050,1,4,3.81417,4.0007,2351.886,23.2,
1507,SBT4050,1,4,3.81623,3.9998,2351.886,23.2,
1507,SBT4050,1,4,3.81869,4.0004,2351.886,23.2,
1507,SBT4050,1,4,3.82114,4.0003,2351.886,23.2,
1507,SBT4050,1,4,3.82309,3.9997,2351.886,23.2,
1507,SBT4050,1,4,3.82544,4,2351.886,23.2,
1507,SBT4050,1,4,3.82782,3.9994,2351.886,23.3,
1507,SBT4050,1,4,3.83037,4,2351.886,23.3,
1507,SBT4050,1,4,3.83268,3.9995,2351.886,23.3,
1507,SBT4050,1,4,3.835102,4.0004,2351.886,23.3,
1507,SBT4050,1,4,3.837,3.9998,2351.886,23.3,
1507,SBT4050,1,4,3.84,3.9998,2351.886,23.3,
1507,SBT4050,1,4,3.842262,4.0001,2351.886,23.3,
1507,SBT4050,1,4,3.84513,3.9994,2351.886,23.3,
1507,SBT4050,1,4,3.84764,4.0003,2351.886,23.3,
1507,SBT4050,1,4,3.850284,4.0004,2351.886,23.3,
1507,SBT4050,1,4,3.8527,3.9998,2351.886,23.3,
1507,SBT4050,1,4,3.85564,3.9998,2351.886,23.3,
1507,SBT4050,1,4,3.85819,3.9994,2351.886,23.3,
1507,SBT4050,1,4,3.86133,3.9997,2351.886,23.3,
1507,SBT4050,1,4,3.86394,3.9998,2351.886,23.4,
1507,SBT4050,1,4,3.86708,4,2351.886,23.4,
1507,SBT4050,1,4,3.86976,4,2351.886,23.4,
1507,SBT4050,1,4,3.873116,4.0003,2351.886,23.4,
1507,SBT4050,1,4,3.875718,4.0003,2351.886,23.4,
1507,SBT4050,1,4,3.87882,3.9998,2351.886,23.4,
1507,SBT4050,1,4,3.88171,3.9994,2351.886,23.4,
1507,SBT4050,1,4,3.88521,4.0001,2351.886,23.4,
1507,SBT4050,1,4,3.88822,3.9997,2351.886,23.4,
1507,SBT4050,1,4,3.89141,4.0001,2351.886,23.4,
1507,SBT4050,1,4,3.89492,3.9997,2351.886,23.5,
1507,SBT4050,1,4,3.89788,4,2351.886,23.5,
1507,SBT4050,1,4,3.901132,4.0001,2351.886,23.5,
1507,SBT4050,1,4,3.90471,4.0005,2351.886,23.5,
1507,SBT4050,1,4,3.90772,3.9994,2351.886,23.5,
1507,SBT4050,1,4,3.911266,3.9995,2351.886,23.5,
1507,SBT4050,1,4,3.91463,4,2351.886,23.5,
1507,SBT4050,1,4,3.91811,4.0005,2351.886,23.5,
1507,SBT4050,1,4,3.92133,4.0001,2351.886,23.5,
1507,SBT4050,1,4,3.92469,4.0004,2351.886,23.5,
1507,SBT4050,1,4,3.928098,4,2351.886,23.5,
1507,SBT4050,1,4,3.92898,4,2351.886,,