File: Dataset/AANDCNet/cell1/cycle_04/Test1509.csv
Test:,1509,,,,,,,
Start Time:,6/27/2021 1:14 PM,,,,,,,
End Time:,6/28/2021 1:15 PM,,,,,,,
Test,Rack,Shelf,Position,Voltage (V),Current (A),Discharge Capacity (mAh),TC_1 (C),
1509,SBT4050,1,4,3.75989,0,0,20.8,
1509,SBT4050,1,4,3.91019,4,0,20.8,
1509,SBT4050,1,4,3.96633,3.9991,0,21.2,
1509,SBT4050,1,4,4.0037,3.9998,0,21.5,
1509,SBT4050,1,4,4.03836,4,0,21.7,
1509,SBT4050,1,4,4.07282,3.9999,0,21.8,
1509,SBT4050,1,4,4.10979,3.9997,0,21.9,
1509,SBT4050,1,4,4.15134,4,0,22,
1509,SBT4050,1,4,4.1964,3.9994,0,22.1,
1509,SBT4050,1,4,4.20028,3.0856,0,22.1,
1509,SBT4050,1,4,4.19988,2.5423,0,21.9,
1509,SBT4050,1,4,4.1999,2.165,0,21.7,
1509,SBT4050,1,4,4.20011,1.8545,0,21.5,
1509,SBT4050,1,4,4.2,1.5751,0,21.3,
1509,SBT4050,1,4,4.20021,1.3267,0,21.1,
1509,SBT4050,1,4,4.19998,1.1158,0,21,
1509,SBT4050,1,4,4.19997,0.9319,0,20.8,
1509,SBT4050,1,4,4.20005,0.7786,0,20.8,
1509,SBT4050,1,4,4.200074,0.6533,0,20.7,
1509,SBT4050,1,4,4.20023,0.549,0,20.6,
1509,SBT4050,1,4,4.20029,0.46029,0,20.6,
1509,SBT4050,1,4,4.20034,0.39173,0,20.5,
1509,SBT4050,1,4,4.200074,0.33518,0,20.5,
1509,SBT4050,1,4,4.20022,0.29138,0,20.5,
1509,SBT4050,1,4,4.20003,0.24768,0,20.5,
1509,SBT4050,1,4,4.20025,0.21907,0,20.4,
1509,SBT4050,1,4,4.200122,0.19352,0,20.4,
1509,SBT4050,1,4,4.20021,0.16778,0,20.4,
1509,SBT4050,1,4,4.20034,0.14622,0,20.4,
1509,SBT4050,1,4,4.2003,0.13084,0,20.4,
1509,SBT4050,1,4,4.20001,0.1156,0,20.4,
1509,SBT4050,1,4,4.20019,0.10738,0,20.3,
1509,SBT4050,1,4,4.19531,0,0,20.4,
1509,SBT4050,1,4,4.19269,0,0,20.4,
1509,SBT4050,1,4,4.19111,0,0,20.4,
1509,SBT4050,1,4,4.1895,0,0,20.4,
1509,SBT4050,1,4,4.18831,0,0,20.4,
1509,SBT4050,1,4,4.187,0,0,20.3,
1509,SBT4050,1,4,4.186422,0,0,20.4,
1509,SBT4050,1,4,4.18527,0,0,20.4,
1509,SBT4050,1,4,4.18458,0,0,20.4,
1509,SBT4050,1,4,4.18403,0,0,20.4,
1509,SBT4050,1,4,4.18338,0,0,20.4,
1509,SBT4050,1,4,4.18287,0,0,20.4,
1509,SBT4050,1,4,4.18186,0,0,20.4,
1509,SBT4050,1,4,4.18138,0,0,20.4,
1509,SBT4050,1,4,4.18112,0,0,20.4,
1509,SBT4050,1,4,4.18081,0,0,20.4,
1509,SBT4050,1,4,4.18026,0,0,20.4,
1509,SBT4050,1,4,4.1803,0,0,20.4,
1509,SBT4050,1,4,4.17999,0,0,20.4,
1509,SBT4050,1,4,4.17936,0,0,20.4,
1509,SBT4050,1,4,4.17896,0,0,20.4,
1509,SBT4050,1,4,4.17898,0,0,20.4,
1509,SBT4050,1,4,4.17863,0,0,20.4,
1509,SBT4050,1,4,4.1782,0,0,20.4,
1509,SBT4050,1,4,4.17817,0,0,20.4,
1509,SBT4050,1,4,4.17763,0,0,20.4,
1509,SBT4050,1,4,4.17765,0,0,20.4,
1509,SBT4050,1,4,4.17726,0,0,20.4,
1509,SBT4050,1,4,4.17684,0,0,20.4,
1509,SBT4050,1,4,4.176844,0,0,20.4,
1509,SBT4050,1,4,4.17706,0,0,20.4,
1509,SBT4050,1,4,4.17675,0,0,20.4,
1509,SBT4050,1,4,4.17662,0,0,20.4,
1509,SBT4050,1,4,4.17608,0,0,20.4,
1509,SBT4050,1,4,4.17595,0,0,20.4,
1509,SBT4050,1,4,4.17579,0,0,20.4,
1509,SBT4050,1,4,4.17579,0,0,20.4,
1509,SBT4050,1,4,4.1756,0,0,20.4,
1509,SBT4050,1,4,4.17542,0,0,20.4,
1509,SBT4050,1,4,4.17544,0,0,20.4,
1509,SBT4050,1,4,4.1754,0,0,20.4,
1509,SBT4050,1,4,4.17519,0,0,20.4,
1509,SBT4050,1,4,4.17475,0,0,20.4,
1509,SBT4050,1,4,4.17497,0,0,20.4,
1509,SBT4050,1,4,4.17488,0,0,20.4,
1509,SBT4050,1,4,4.17449,0,0,20.4,
1509,SBT4050,1,4,3.65849,-14.999,107.97,21.1,
1509,SBT4050,1,4,3.53529,-15,432.957,25.5,
1509,SBT4050,1,4,3.43051,-15,757.944,28.7,
1509,SBT4050,1,4,3.32064,-14.999,1082.931,30.3,
1509,SBT4050,1,4,3.21654,-14.998,1407.917,31.3,
1509,SBT4050,1,4,3.10966,-15.001,1732.91,32.3,
1509,SBT4050,1,4,2.96306,-14.999,2057.901,33.5,
1509,SBT4050,1,4,2.99674,0,2348.161,35.1,
1509,SBT4050,1,4,3.10345,0,2348.161,30.2,
1509,SBT4050,1,4,3.11703,0,2348.161,26.5,
1509,SBT4050,1,4,3.12372,0,2348.161,24.1,
1509,SBT4050,1,4,3.12829,0,2348.161,22.7,
1509,SBT4050,1,4,3.13153,0,2348.161,21.8,
1509,SBT4050,1,4,3.13396,0,2348.161,21.2,
1509,SBT4050,1,4,3.136087,0,2348.161,20.9,
1509,SBT4050,1,4,3.1378,0,2348.161,20.6,
1509,SBT4050,1,4,3.1394,0,2348.161,20.5,
1509,SBT4050,1,4,3.14093,0,2348.161,20.4,
1509,SBT4050,1,4,3.14226,0,2348.161,20.4,
1509,SBT4050,1,4,3.48218,4.0001,2348.161,20.4,
1509,SBT4050,1,4,3.58797,4,2348.161,20.8,
1509,SBT4050,1,4,3.621964,4.0006,2348.161,21.2,
1509,SBT4050,1,4,3.65442,3.9998,2348.161,21.5,
1509,SBT4050,1,4,3.68452,3.9998,2348.161,21.6,
1509,SBT4050,1,4,3.71436,4.0003,2348.161,21.7,
1509,SBT4050,1,4,3.73668,3.9999,2348.161,21.7,
1509,SBT4050,1,4,3.75502,4.0003,2348.161,21.7,
1509,SBT4050,1,4,3.7755,3.9994,2348.161,21.7,
1509,SBT4050,1,4,3.79677,4,2348.161,21.8,
1509,SBT4050,1,4,3.81802,3.9997,2348.161,21.8,
1509,SBT4050,1,4,3.84105,3.9997,2348.161,21.9,
1509,SBT4050,1,4,3.86749,3.9998,2348.161,22,
1509,SBT4050,1,4,3.89764,3.9997,2348.161,22,
1509,SBT4050,1,4,3.930502,4,2348.161,22,
1509,SBT4050,1,4,3.965254,4.0002,2348.161,22.1,
1509,SBT4050,1,4,4.00007,4,2348.161,22.1,
1509,SBT4050,1,4,4.03343,4,2348.161,22.1,
1509,SBT4050,1,4,4.067174,3.9995,2348.161,22.2,
1509,SBT4050,1,4,4.10307,3.9997,2348.161,22.1,
1509,SBT4050,1,4,4.14499,3.9997,2348.161,22.2,
1509,SBT4050,1,4,4.19025,4.0001,2348.161,22.2,
1509,SBT4050,1,4,4.20005,3.1826,2348.161,22.2,
1509,SBT4050,1,4,4.20018,2.6067,2348.161,21.9,
1509,SBT4050,1,4,4.20005,2.2143,2348.161,21.7,
1509,SBT4050,1,4,4.20012,1.9034,2348.161,21.5,
1509,SBT4050,1,4,4.199986,1.6222,2348.161,21.3,
1509,SBT4050,1,4,4.20011,1.3773,2348.161,21.1,
1509,SBT4050,1,4,4.20008,1.1615,2348.161,21,
1509,SBT4050,1,4,4.20008,0.9729,2348.161,20.9,
1509,SBT4050,1,4,4.20027,0.8145,2348.161,20.8,
1509,SBT4050,1,4,4.20001,0.6825,2348.161,20.7,
1509,SBT4050,1,4,4.20012,0.5743,2348.161,20.7,
1509,SBT4050,1,4,4.20019,0.4848,2348.161,20.6,
1509,SBT4050,1,4,4.20012,0.41217,2348.161,20.6,
1509,SBT4050,1,4,4.19995,0.3522,2348.161,20.5,
1509,SBT4050,1,4,4.20007,0.30382,2348.161,20.5,
1509,SBT4050,1,4,4.20006,0.2622,2348.161,20.5,
1509,SBT4050,1,4,4.20005,0.22679,2348.161,20.4,
1509,SBT4050,1,4,4.20005,0.19872,2348.161,20.4,
1509,SBT4050,1,4,4.20018,0.17598,2348.161,20.4,
1509,SBT4050,1,4,4.20003,0.15375,2348.161,20.4,
1509,SBT4050,1,4,4.20006,0.13939,2348.161,20.4,
1509,SBT4050,1,4,4.200284,0.12321,2348.161,20.4,
1509,SBT4050,1,4,4.19989,0.11085,2348.161,20.4,
1509,SBT4050,1,4,4.197376,0,2348.161,20.4,
1509,SBT4050,1,4,4.19412,0,2348.161,20.3,
1509,SBT4050,1,4,4.192,0,2348.161,20.3,
1509,SBT4050,1,4,4.190222,0,2348.161,20.3,
1509,SBT4050,1,4,4.18902,0,2348.161,20.3,
1509,SBT4050,1,4,4.1878,0,2348.161,20.3,
1509,SBT4050,1,4,4.18676,0,2348.161,20.3,
1509,SBT4050,1,4,4.18588,0,2348.161,20.3,
1509,SBT4050,1,4,4.18503,0,2348.161,20.3,
1509,SBT4050,1,4,4.18438,0,2348.161,20.3,
1509,SBT4050,1,4,4.18367,0,2348.161,20.3,
1509,SBT4050,1,4,4.18302,0,2348.161,20.3,
1509,SBT4050,1,4,4.182282,0,2348.161,20.3,
1509,SBT4050,1,4,4.181966,0,2348.161,20.3,
1509,SBT4050,1,4,4.181388,0,2348.161,20.3,
1509,SBT4050,1,4,4.18105,0,2348.161,20.3,
1509,SBT4050,1,4,4.18047,0,2348.161,20.3,
1509,SBT4050,1,4,4.18086,0,2348.161,20.3,
1509,SBT4050,1,4,4.17981,0,2348.161,20.3,
1509,SBT4050,1,4,4.17992,0,2348.161,20.3,
1509,SBT4050,1,4,4.17939,0,2348.161,20.3,
1509,SBT4050,1,4,4.17909,0,2348.161,20.3,
1509,SBT4050,1,4,4.1789,0,2348.161,20.3,
1509,SBT4050,1,4,4.17854,0,2348.161,20.3,
1509,SBT4050,1,4,4.178424,0,2348.161,20.3,
1509,SBT4050,1,4,4.17809,0,2348.161,20.3,
1509,SBT4050,1,4,4.17747,0,2348.161,20.3,
1509,SBT4050,1,4,4.1774,0,2348.161,20.4,
1509,SBT4050,1,4,4.17742,0,2348.161,20.4,
1509,SBT4050,1,4,4.17688,0,2348.161,20.3,
1509,SBT4050,1,4,4.17655,0,2348.161,20.4,
1509,SBT4050,1,4,4.1768,0,2348.161,20.3,
1509,SBT4050,1,4,4.176512,0,2348.161,20.4,
1509,SBT4050,1,4,4.17631,0,2348.161,20.4,
1509,SBT4050,1,4,4.17643,0,2348.161,20.3,
1509,SBT4050,1,4,4.17606,0,2348.161,20.3,
1509,SBT4050,1,4,4.17574,0,2348.161,20.3,
1509,SBT4050,1,4,4.17572,0,2348.161,20.3,
1509,SBT4050,1,4,4.1755,0,2348.161,20.3,
1509,SBT4050,1,4,4.17524,0,2348.161,20.3,
1509,SBT4050,1,4,4.175208,0,2348.161,20.3,
1509,SBT4050,1,4,4.17497,0,2348.161,20.3,
1509,SBT4050,1,4,4.17514,0,2348.161,20.3,
1509,SBT4050,1,4,4.17484,0,2348.161,20.3,
1509,SBT4050,1,4,4.17451,0,2348.161,20.4,
1509,SBT4050,1,4,4.17465,0,2348.161,20.3,
1509,SBT4050,1,4,4.17465,0,2348.161,20.3,
1509,SBT4050,1,4,3.65156,-12.5,2605.652,22.9,
1509,SBT4050,1,4,3.5638,-12.5,2876.471,25.5,
1509,SBT4050,1,4,3.470888,-12.5,3147.295,27,
1509,SBT4050,1,4,3.374204,-12.499,3418.12,28,
1509,SBT4050,1,4,3.28253,-12.499,3688.944,28.7,
1509,SBT4050,1,4,3.19418,-12.499,3959.768,29.4,
1509,SBT4050,1,4,3.0938,-12.5,4230.591,30.1,
1509,SBT4050,1,4,2.92073,-12.5,4501.414,31,
1509,SBT4050,1,4,3.044,0,4695.673,32.1,
1509,SBT4050,1,4,3.09765,0,4695.673,28,
1509,SBT4050,1,4,3.10978,0,4695.673,24.9,
1509,SBT4050,1,4,3.11636,0,4695.673,23.2,
1509,SBT4050,1,4,3.120699,0,4695.673,22.1,
1509,SBT4050,1,4,3.124125,0,4695.673,21.4,
1509,SBT4050,1,4,3.12642,0,4695.673,21.1,
1509,SBT4050,1,4,3.12875,0,4695.673,20.8,
1509,SBT4050,1,4,3.13097,0,4695.673,20.7,
1509,SBT4050,1,4,3.13258,0,4695.673,20.5,
1509,SBT4050,1,4,3.13391,0,4695.673,20.5,
1509,SBT4050,1,4,3.13546,0,4695.673,20.4,
1509,SBT4050,1,4,3.51152,4.0001,4695.673,20.5,
1509,SBT4050,1,4,3.5927,3.9998,4695.673,20.9,
1509,SBT4050,1,4,3.62676,3.9997,4695.673,21.4,
1509,SBT4050,1,4,3.65849,3.9997,4695.673,21.6,
1509,SBT4050,1,4,3.68918,3.9995,4695.673,21.7,
1509,SBT4050,1,4,3.71799,3.9997,4695.673,21.7,
1509,SBT4050,1,4,3.73881,4.0001,4695.673,21.7,
1509,SBT4050,1,4,3.75813,4.0001,4695.673,21.7,
1509,SBT4050,1,4,3.7787,3.9997,4695.673,21.8,
1509,SBT4050,1,4,3.80016,4.0002,4695.673,21.9,
1509,SBT4050,1,4,3.82153,3.9999,4695.673,21.9,
1509,SBT4050,1,4,3.8453,3.9998,4695.673,21.9,
1509,SBT4050,1,4,3.872418,4.0004,4695.673,22,
1509,SBT4050,1,4,3.903766,3.9999,4695.673,22,
1509,SBT4050,1,4,3.937176,4.0002,4695.673,22.1,
1509,SBT4050,1,4,3.971314,4.0001,4695.673,22.1,
1509,SBT4050,1,4,4.00595,3.9998,4695.673,22.1,
1509,SBT4050,1,4,4.03984,4.0003,4695.673,22.1,
1509,SBT4050,1,4,4.07386,3.9999,4695.673,22.1,
1509,SBT4050,1,4,4.1108,4,4695.673,22.1,
1509,SBT4050,1,4,4.15369,3.9997,4695.673,22.1,
1509,SBT4050,1,4,4.19965,3.9999,4695.673,22.1,
1509,SBT4050,1,4,4.20006,3.0431,4695.673,22.1,
1509,SBT4050,1,4,4.20005,2.5125,4695.673,21.8,
1509,SBT4050,1,4,4.20017,2.1394,4695.673,21.6,
1509,SBT4050,1,4,4.200108,1.8358,4695.673,21.4,
1509,SBT4050,1,4,4.19998,1.5666,4695.673,21.2,
1509,SBT4050,1,4,4.20019,1.3264,4695.673,21,
1509,SBT4050,1,4,4.20032,1.1159,4695.673,20.9,
1509,SBT4050,1,4,4.20004,0.939,4695.673,20.8,
1509,SBT4050,1,4,4.20023,0.7893,4695.673,20.7,
1509,SBT4050,1,4,4.20019,0.6607,4695.673,20.6,
1509,SBT4050,1,4,4.200072,0.5561,4695.673,20.6,
1509,SBT4050,1,4,4.200418,0.47297,4695.673,20.5,
1509,SBT4050,1,4,4.20032,0.40024,4695.673,20.5,
1509,SBT4050,1,4,4.20032,0.3433,4695.673,20.4,
1509,SBT4050,1,4,4.19996,0.29413,4695.673,20.4,
1509,SBT4050,1,4,4.20004,0.25604,4695.673,20.4,
1509,SBT4050,1,4,4.19994,0.22256,4695.673,20.3,
1509,SBT4050,1,4,4.200108,0.19611,4695.673,20.4,
1509,SBT4050,1,4,4.20001,0.17506,4695.673,20.3,
1509,SBT4050,1,4,4.19994,0.15235,4695.673,20.3,
1509,SBT4050,1,4,4.19987,0.13663,4695.673,20.4,
1509,SBT4050,1,4,4.20018,0.12215,4695.673,20.3,
1509,SBT4050,1,4,4.20012,0.11074,4695.673,20.3,
1509,SBT4050,1,4,4.19631,0,4695.673,20.3,
1509,SBT4050,1,4,4.193176,0,4695.673,20.3,
1509,SBT4050,1,4,4.19125,0,4695.673,20.3,
1509,SBT4050,1,4,4.19015,0,4695.673,20.3,
1509,SBT4050,1,4,4.18844,0,4695.673,20.4,
1509,SBT4050,1,4,4.18717,0,4695.673,20.3,
1509,SBT4050,1,4,4.18667,0,4695.673,20.3,
1509,SBT4050,1,4,4.18516,0,4695.673,20.3,
1509,SBT4050,1,4,4.18457,0,4695.673,20.3,
1509,SBT4050,1,4,4.18402,0,4695.673,20.4,
1509,SBT4050,1,4,4.183254,0,4695.673,20.4,
1509,SBT4050,1,4,4.18248,0,4695.673,20.4,
1509,SBT4050,1,4,4.181792,0,4695.673,20.4,
1509,SBT4050,1,4,4.18155,0,4695.673,20.4,
1509,SBT4050,1,4,4.18133,0,4695.673,20.4,
1509,SBT4050,1,4,4.18049,0,4695.673,20.4,
1509,SBT4050,1,4,4.18011,0,4695.673,20.4,
1509,SBT4050,1,4,4.17973,0,4695.673,20.4,
1509,SBT4050,1,4,4.179688,0,4695.673,20.4,
1509,SBT4050,1,4,4.17895,0,4695.673,20.4,
1509,SBT4050,1,4,4.178604,0,4695.673,20.4,
1509,SBT4050,1,4,4.178334,0,4695.673,20.4,
1509,SBT4050,1,4,4.17813,0,4695.673,20.4,
1509,SBT4050,1,4,4.17758,0,4695.673,20.4,
1509,SBT4050,1,4,4.17766,0,4695.673,20.4,
1509,SBT4050,1,4,4.17729,0,4695.673,20.4,
1509,SBT4050,1,4,4.17726,0,4695.673,20.4,
1509,SBT4050,1,4,4.176818,0,4695.673,20.4,
1509,SBT4050,1,4,4.17679,0,4695.673,20.4,
1509,SBT4050,1,4,4.17631,0,4695.673,20.4,
1509,SBT4050,1,4,4.1764,0,4695.673,20.4,
1509,SBT4050,1,4,4.17604,0,4695.673,20.4,
1509,SBT4050,1,4,4.17591,0,4695.673,20.4,
1509,SBT4050,1,4,4.17591,0,4695.673,20.4,
1509,SBT4050,1,4,4.17548,0,4695.673,20.4,
1509,SBT4050,1,4,4.17564,0,4695.673,20.4,
1509,SBT4050,1,4,4.17525,0,4695.673,20.4,
1509,SBT4050,1,4,4.17492,0,4695.673,20.4,
1509,SBT4050,1,4,4.17522,0,4695.673,20.4,
1509,SBT4050,1,4,4.174726,0,4695.673,20.4,
1509,SBT4050,1,4,4.174856,0,4695.673,20.4,
1509,SBT4050,1,4,4.17468,0,4695.673,20.4,
1509,SBT4050,1,4,4.17437,0,4695.673,20.4,
1509,SBT4050,1,4,4.1741,0,4695.673,20.4,
1509,SBT4050,1,4,4.17411,0,4695.673,20.4,
1509,SBT4050,1,4,4.17396,0,4695.673,20.4,
1509,SBT4050,1,4,3.976458,-7.501,4704.668,20.4,
1509,SBT4050,1,4,3.81396,-7.501,4867.155,21.5,
1509,SBT4050,1,4,3.7541,-7.5,5029.644,22.4,
1509,SBT4050,1,4,3.69657,-7.499,5192.136,23,
1509,SBT4050,1,4,3.63908,-7.499,5354.624,23.4,
1509,SBT4050,1,4,3.57969,-7.499,5517.11,23.7,
1509,SBT4050,1,4,3.51781,-7.5,5679.596,24,
1509,SBT4050,1,4,3.45747,-7.499,5842.083,24.1,
1509,SBT4050,1,4,3.40277,-7.5,6004.57,24.2,
1509,SBT4050,1,4,3.3519,-7.499,6167.059,24.2,
1509,SBT4050,1,4,3.300363,-7.499,6329.547,24.4,
1509,SBT4050,1,4,3.24295,-7.498,6492.036,24.6,
1509,SBT4050,1,4,3.16895,-7.499,6654.52,25,
1509,SBT4050,1,4,3.046285,-7.501,6817.004,25.4,
1509,SBT4050,1,4,2.74401,-7.499,6979.492,26.2,
1509,SBT4050,1,4,3.06085,0,7037.342,25.9,
1509,SBT4050,1,4,3.09059,0,7037.342,23.7,
1509,SBT4050,1,4,3.10148,0,7037.342,22.5,
1509,SBT4050,1,4,3.108188,0,7037.342,21.7,
1509,SBT4050,1,4,3.5015,3.9995,7037.342,21.2,
1509,SBT4050,1,4,3.58533,3.9997,7037.342,21.3,
1509,SBT4050,1,4,3.622,3.9999,7037.342,21.6,
1509,SBT4050,1,4,3.65554,3.9997,7037.342,21.7,
1509,SBT4050,1,4,3.68746,4,7037.342,21.7,
1509,SBT4050,1,4,3.71741,4.0003,7037.342,21.7,
1509,SBT4050,1,4,3.738378,3.9997,7037.342,21.7,
1509,SBT4050,1,4,3.75807,4,7037.342,21.7,
1509,SBT4050,1,4,3.77908,4.0003,7037.342,21.8,
1509,SBT4050,1,4,3.8009,4.0004,7037.342,21.8,
1509,SBT4050,1,4,3.822824,4.0004,7037.342,21.8,
1509,SBT4050,1,4,3.84708,3.9998,7037.342,22,
1509,SBT4050,1,4,3.87502,3.9995,7037.342,22.1,
1509,SBT4050,1,4,3.90617,3.9997,7037.342,22.1,
1509,SBT4050,1,4,3.93999,3.9998,7037.342,22.1,
1509,SBT4050,1,4,3.97463,3.9997,7037.342,22.1,
1509,SBT4050,1,4,4.00946,4,7037.342,22.1,
1509,SBT4050,1,4,4.04294,3.9997,7037.342,22.1,
1509,SBT4050,1,4,4.07689,4,7037.342,22.1,
1509,SBT4050,1,4,4.11489,4.0005,7037.342,22.1,
1509,SBT4050,1,4,4.15811,4.0001,7037.342,22.2,
1509,SBT4050,1,4,4.20038,3.865,7037.342,22.2,
1509,SBT4050,1,4,4.20012,2.9781,7037.342,22.1,
1509,SBT4050,1,4,4.2,2.4705,7037.342,21.9,
1509,SBT4050,1,4,4.20012,2.1073,7037.342,21.6,
1509,SBT4050,1,4,4.20009,1.8056,7037.342,21.5,
1509,SBT4050,1,4,4.199972,1.54,7037.342,21.3,
1509,SBT4050,1,4,4.200258,1.3024,7037.342,21.1,
1509,SBT4050,1,4,4.20023,1.0954,7037.342,21,
1509,SBT4050,1,4,4.2,0.9204,7037.342,20.9,
1509,SBT4050,1,4,4.199984,0.771,7037.342,20.8,
1509,SBT4050,1,4,4.20019,0.6477,7037.342,20.7,
1509,SBT4050,1,4,4.20019,0.5469,7037.342,20.7,
1509,SBT4050,1,4,4.200282,0.46384,7037.342,20.6,
1509,SBT4050,1,4,4.19996,0.39484,7037.342,20.6,
1509,SBT4050,1,4,4.20021,0.33795,7037.342,20.5,
1509,SBT4050,1,4,4.20017,0.29199,7037.342,20.5,
1509,SBT4050,1,4,4.20017,0.25073,7037.342,20.5,
1509,SBT4050,1,4,4.20008,0.22123,7037.342,20.4,
1509,SBT4050,1,4,4.2001,0.19452,7037.342,20.4,
1509,SBT4050,1,4,4.200258,0.16865,7037.342,20.4,
1509,SBT4050,1,4,4.20027,0.14852,7037.342,20.4,
1509,SBT4050,1,4,4.20031,0.13328,7037.342,20.4,
1509,SBT4050,1,4,4.20023,0.12055,7037.342,20.4,
1509,SBT4050,1,4,4.19996,0.10705,7037.342,20.4,
1509,SBT4050,1,4,4.20008,0.10017,7037.342,20.4,
1509,SBT4050,1,4,4.1942,0,7037.342,20.4,
1509,SBT4050,1,4,4.19221,0,7037.342,20.4,
1509,SBT4050,1,4,4.19072,0,7037.342,20.4,
1509,SBT4050,1,4,4.189392,0,7037.342,20.3,
1509,SBT4050,1,4,4.18818,0,7037.342,20.3,
1509,SBT4050,1,4,4.186924,0,7037.342,20.3,
1509,SBT4050,1,4,4.1861,0,7037.342,20.3,
1509,SBT4050,1,4,4.18547,0,7037.342,20.3,
1509,SBT4050,1,4,4.18435,0,7037.342,20.3,
1509,SBT4050,1,4,4.18377,0,7037.342,20.3,
1509,SBT4050,1,4,4.18316,0,7037.342,20.3,
1509,SBT4050,1,4,4.18308,0,7037.342,20.3,
1509,SBT4050,1,4,4.18225,0,7037.342,20.3,
1509,SBT4050,1,4,4.18159,0,7037.342,20.3,
1509,SBT4050,1,4,4.18109,0,7037.342,20.4,
1509,SBT4050,1,4,4.18096,0,7037.342,20.3,
1509,SBT4050,1,4,4.18017,0,7037.342,20.3,
1509,SBT4050,1,4,4.18009,0,7037.342,20.3,
1509,SBT4050,1,4,4.18002,0,7037.342,20.3,
1509,SBT4050,1,4,4.179266,0,7037.342,20.3,
1509,SBT4050,1,4,4.17925,0,7037.342,20.3,
1509,SBT4050,1,4,4.17887,0,7037.342,20.3,
1509,SBT4050,1,4,4.179,0,7037.342,20.3,
1509,SBT4050,1,4,4.178228,0,7037.342,20.3,
1509,SBT4050,1,4,4.17831,0,7037.342,20.3,
1509,SBT4050,1,4,4.17793,0,7037.342,20.3,
1509,SBT4050,1,4,4.177608,0,7037.342,20.3,
1509,SBT4050,1,4,4.1774,0,7037.342,20.3,
1509,SBT4050,1,4,4.17729,0,7037.342,20.3,
1509,SBT4050,1,4,4.17692,0,7037.342,20.3,
1509,SBT4050,1,4,4.17676,0,7037.342,20.3,
1509,SBT4050,1,4,4.176704,0,7037.342,20.3,
1509,SBT4050,1,4,4.17616,0,7037.342,20.3,
1509,SBT4050,1,4,4.17641,0,7037.342,20.3,
1509,SBT4050,1,4,4.17598,0,7037.342,20.3,
1509,SBT4050,1,4,4.17583,0,7037.342,20.3,
1509,SBT4050,1,4,4.17581,0,7037.342,20.3,
1509,SBT4050,1,4,4.17583,0,7037.342,20.3,
1509,SBT4050,1,4,4.175606,0,7037.342,20.3,
1509,SBT4050,1,4,4.175594,0,7037.342,20.4,
1509,SBT4050,1,4,4.17531,0,7037.342,20.3,
1509,SBT4050,1,4,4.17538,0,7037.342,20.4,
1509,SBT4050,1,4,4.17503,0,7037.342,20.4,
1509,SBT4050,1,4,4.174844,0,7037.342,20.4,
1509,SBT4050,1,4,4.17498,0,7037.342,20.4,
1509,SBT4050,1,4,4.17457,0,7037.342,20.4,
1509,SBT4050,1,4,3.932644,-5,7125.327,20.7,
1509,SBT4050,1,4,3.87662,-5,7233.648,21.2,
1509,SBT4050,1,4,3.83733,-4.999,7341.969,21.6,
1509,SBT4050,1,4,3.79726,-4.999,7450.292,21.8,
1509,SBT4050,1,4,3.75777,-4.999,7558.614,22,
1509,SBT4050,1,4,3.71995,-4.999,7666.938,22,
1509,SBT4050,1,4,3.68282,-4.999,7775.26,22.1,
1509,SBT4050,1,4,3.64306,-4.999,7883.582,22.1,
1509,SBT4050,1,4,3.601356,-4.999,7991.905,22.2,
1509,SBT4050,1,4,3.55933,-5,8100.227,22.2,
1509,SBT4050,1,4,3.51822,-4.999,8208.548,22.3,
1509,SBT4050,1,4,3.4815,-5,8316.871,22.3,
1509,SBT4050,1,4,3.449156,-4.999,8425.192,22.3,
1509,SBT4050,1,4,3.41873,-4.999,8533.513,22.3,
1509,SBT4050,1,4,3.38815,-5.001,8641.836,22.4,
1509,SBT4050,1,4,3.35516,-4.999,8750.158,22.5,
1509,SBT4050,1,4,3.31686,-5,8858.48,22.5,
1509,SBT4050,1,4,3.26871,-5,8966.803,22.7,
1509,SBT4050,1,4,3.20431,-5.001,9075.125,22.8,
1509,SBT4050,1,4,3.09714,-5,9183.447,23.1,
1509,SBT4050,1,4,2.89351,-5,9291.769,23.5,
1509,SBT4050,1,4,2.94802,0,9385.609,24.3,
1509,SBT4050,1,4,3.05028,0,9385.609,23,
1509,SBT4050,1,4,3.06887,0,9385.609,22.1,
1509,SBT4050,1,4,3.07831,0,9385.609,21.4,
1509,SBT4050,1,4,3.3647,3.9994,9385.609,21,
1509,SBT4050,1,4,3.5566,4.0001,9385.609,21,
1509,SBT4050,1,4,3.60169,3.9998,9385.609,21.3,
1509,SBT4050,1,4,3.63681,4,9385.609,21.5,
1509,SBT4050,1,4,3.66882,4.0001,9385.609,21.7,
1509,SBT4050,1,4,3.7007,4.0001,9385.609,21.7,
1509,SBT4050,1,4,3.72668,3.9998,9385.609,21.7,
1509,SBT4050,1,4,3.74677,4.0003,9385.609,21.7,
1509,SBT4050,1,4,3.766506,4,9385.609,21.7,
1509,SBT4050,1,4,3.788346,4,9385.609,21.8,
1509,SBT4050,1,4,3.8101,4.0003,9385.609,21.9,
1509,SBT4050,1,4,3.83282,3.9992,9385.609,22,
1509,SBT4050,1,4,3.85838,4,9385.609,22.1,
1509,SBT4050,1,4,3.88815,4,9385.609,22.1,
1509,SBT4050,1,4,3.92059,4,9385.609,22.1,
1509,SBT4050,1,4,3.9548,3.9993,9385.609,22.1,
1509,SBT4050,1,4,3.98977,3.9997,9385.609,22.2,
1509,SBT4050,1,4,4.0236,3.9999,9385.609,22.2,
1509,SBT4050,1,4,4.05748,4.0003,9385.609,22.2,
1509,SBT4050,1,4,4.09291,3.9993,9385.609,22.2,
1509,SBT4050,1,4,4.13306,4.0003,9385.609,22.2,
1509,SBT4050,1,4,4.17775,3.9998,9385.609,22.2,
1509,SBT4050,1,4,4.20014,3.3898,9385.609,22.2,
1509,SBT4050,1,4,4.20017,2.734,9385.609,22,
1509,SBT4050,1,4,4.20026,2.2989,9385.609,21.8,
1509,SBT4050,1,4,4.20025,1.9696,9385.609,21.6,
1509,SBT4050,1,4,4.20001,1.6877,9385.609,21.4,
1509,SBT4050,1,4,4.20014,1.4312,9385.609,21.3,
1509,SBT4050,1,4,4.20018,1.2107,9385.609,21.1,
1509,SBT4050,1,4,4.20023,1.0165,9385.609,21,
1509,SBT4050,1,4,4.20014,0.8499,9385.609,20.8,
1509,SBT4050,1,4,4.20026,0.7156,9385.609,20.7,
1509,SBT4050,1,4,4.20023,0.6008,9385.609,20.7,
1509,SBT4050,1,4,4.20011,0.508,9385.609,20.6,
1509,SBT4050,1,4,4.20014,0.43233,9385.609,20.6,
1509,SBT4050,1,4,4.20021,0.37011,9385.609,20.5,
1509,SBT4050,1,4,4.200072,0.31849,9385.609,20.5,
1509,SBT4050,1,4,4.20006,0.27426,9385.609,20.5,
1509,SBT4050,1,4,4.200072,0.23729,9385.609,20.5,
1509,SBT4050,1,4,4.20006,0.20813,9385.609,20.5,
1509,SBT4050,1,4,4.20002,0.18617,9385.609,20.4,
1509,SBT4050,1,4,4.20031,0.16191,9385.609,20.4,
1509,SBT4050,1,4,4.19983,0.14438,9385.609,20.4,
1509,SBT4050,1,4,4.200358,0.12925,9385.609,20.4,
1509,SBT4050,1,4,4.20013,0.11788,9385.609,20.4,
1509,SBT4050,1,4,4.2001,0.10462,9385.609,20.4,
1509,SBT4050,1,4,4.195018,0,9385.609,20.4,
1509,SBT4050,1,4,4.19259,0,9385.609,20.3,
1509,SBT4050,1,4,4.19114,0,9385.609,20.3,
1509,SBT4050,1,4,4.18954,0,9385.609,20.3,
1509,SBT4050,1,4,4.18799,0,9385.609,20.3,
1509,SBT4050,1,4,4.18698,0,9385.609,20.3,
1509,SBT4050,1,4,4.18614,0,9385.609,20.3,
1509,SBT4050,1,4,4.18537,0,9385.609,20.4,
1509,SBT4050,1,4,4.18431,0,9385.609,20.3,
1509,SBT4050,1,4,4.18365,0,9385.609,20.3,
1509,SBT4050,1,4,4.18302,0,9385.609,20.3,
1509,SBT4050,1,4,4.182626,0,9385.609,20.3,
1509,SBT4050,1,4,4.182146,0,9385.609,20.3,
1509,SBT4050,1,4,4.18138,0,9385.609,20.3,
1509,SBT4050,1,4,4.18113,0,9385.609,20.3,
1509,SBT4050,1,4,4.18054,0,9385.609,20.3,
1509,SBT4050,1,4,4.1802,0,9385.609,20.3,
1509,SBT4050,1,4,4.17963,0,9385.609,20.3,
1509,SBT4050,1,4,4.179532,0,9385.609,20.3,
1509,SBT4050,1,4,4.17927,0,9385.609,20.3,
1509,SBT4050,1,4,4.17878,0,9385.609,20.3,
1509,SBT4050,1,4,4.178286,0,9385.609,20.3,
1509,SBT4050,1,4,4.17851,0,9385.609,20.4,
1509,SBT4050,1,4,4.178024,0,9385.609,20.3,
1509,SBT4050,1,4,4.17789,0,9385.609,20.3,
1509,SBT4050,1,4,4.177774,0,9385.609,20.4,
1509,SBT4050,1,4,4.17703,0,9385.609,20.3,
1509,SBT4050,1,4,4.17725,0,9385.609,20.4,
1509,SBT4050,1,4,4.176964,0,9385.609,20.4,
1509,SBT4050,1,4,4.17656,0,9385.609,20.4,
1509,SBT4050,1,4,4.17612,0,9385.609,20.4,
1509,SBT4050,1,4,4.17623,0,9385.609,20.4,
1509,SBT4050,1,4,4.1758,0,9385.609,20.4,
1509,SBT4050,1,4,4.17581,0,9385.609,20.4,
1509,SBT4050,1,4,4.1758,0,9385.609,20.4,
1509,SBT4050,1,4,4.17573,0,9385.609,20.4,
1509,SBT4050,1,4,4.17529,0,9385.609,20.4,
1509,SBT4050,1,4,4.17537,0,9385.609,20.4,
1509,SBT4050,1,4,4.17518,0,9385.609,20.4,
1509,SBT4050,1,4,4.17481,0,9385.609,20.4,
1509,SBT4050,1,4,4.17462,0,9385.609,20.4,
1509,SBT4050,1,4,4.174596,0,9385.609,20.4,
1509,SBT4050,1,4,4.1743,0,9385.609,20.4,
1509,SBT4050,1,4,4.174464,0,9385.609,20.4,
1509,SBT4050,1,4,4.174434,0,9385.609,20.4,
1509,SBT4050,1,4,4.173856,0,9385.609,20.4,
1509,SBT4050,1,4,4.07046,-2.4998,9406.472,20.4,
1509,SBT4050,1,4,4.01846,-2.4996,9460.638,20.5,
1509,SBT4050,1,4,3.9878,-2.5,9514.803,20.6,
1509,SBT4050,1,4,3.9673,-2.5,9568.969,20.6,
1509,SBT4050,1,4,3.949824,-2.4998,9623.134,20.7,
1509,SBT4050,1,4,3.9312,-2.5004,9677.3,20.7,
1509,SBT4050,1,4,3.911022,-2.5,9731.465,20.8,
1509,SBT4050,1,4,3.889498,-2.5001,9785.631,20.8,
1509,SBT4050,1,4,3.86725,-2.4997,9839.797,20.8,
1509,SBT4050,1,4,3.845728,-2.5,9893.962,20.9,
1509,SBT4050,1,4,3.82474,-2.4998,9948.128,20.8,
1509,SBT4050,1,4,3.80588,-2.5001,10002.293,20.9,
1509,SBT4050,1,4,3.788252,-2.4997,10056.459,20.9,
1509,SBT4050,1,4,3.770422,-2.4999,10110.624,20.9,
1509,SBT4050,1,4,3.75264,-2.5001,10164.79,20.9,
1509,SBT4050,1,4,3.73398,-2.4999,10218.955,20.8,
1509,SBT4050,1,4,3.71411,-2.5,10273.121,20.8,
1509,SBT4050,1,4,3.693924,-2.5001,10327.286,20.8,
1509,SBT4050,1,4,3.67353,-2.5002,10381.452,20.8,
1509,SBT4050,1,4,3.652818,-2.5002,10435.618,20.8,
1509,SBT4050,1,4,3.63241,-2.4998,10489.784,20.8,
1509,SBT4050,1,4,3.612746,-2.5001,10543.949,20.8,
1509,SBT4050,1,4,3.59387,-2.4998,10598.115,20.8,
1509,SBT4050,1,4,3.575718,-2.4998,10652.281,20.8,
1509,SBT4050,1,4,3.55901,-2.5,10706.446,20.8,
1509,SBT4050,1,4,3.54324,-2.5,10760.612,20.8,
1509,SBT4050,1,4,3.52835,-2.5,10814.778,20.8,
1509,SBT4050,1,4,3.51383,-2.5,10868.943,20.9,
1509,SBT4050,1,4,3.49907,-2.5,10923.109,20.9,
1509,SBT4050,1,4,3.48487,-2.5001,10977.275,20.9,
1509,SBT4050,1,4,3.46942,-2.5001,11031.44,20.9,
1509,SBT4050,1,4,3.45389,-2.4999,11085.606,21,
1509,SBT4050,1,4,3.43731,-2.4998,11139.771,21.1,
1509,SBT4050,1,4,3.42027,-2.5001,11193.937,21.1,
1509,SBT4050,1,4,3.4016,-2.4995,11248.103,21.1,
1509,SBT4050,1,4,3.380104,-2.5002,11302.269,21.1,
1509,SBT4050,1,4,3.35434,-2.4999,11356.434,21.2,
1509,SBT4050,1,4,3.324644,-2.5001,11410.6,21.2,
1509,SBT4050,1,4,3.28555,-2.4996,11464.766,21.2,
1509,SBT4050,1,4,3.22863,-2.5001,11518.931,21.3,
1509,SBT4050,1,4,3.14779,-2.4996,11573.097,21.4,
1509,SBT4050,1,4,3.0444,-2.4997,11627.263,21.6,
1509,SBT4050,1,4,2.90086,-2.5,11681.428,21.7,
1509,SBT4050,1,4,2.65042,-2.4996,11735.594,22,
1509,SBT4050,1,4,2.93334,0,11756.173,22,
1509,SBT4050,1,4,2.96862,0,11756.173,21.4,
1509,SBT4050,1,4,2.983626,0,11756.173,21,
1509,SBT4050,1,4,2.99314,0,11756.173,20.7,
1509,SBT4050,1,4,3.45987,4.0001,11756.173,20.7,
1509,SBT4050,1,4,3.57437,4.0001,11756.173,21.1,
1509,SBT4050,1,4,3.61081,4.0003,11756.173,21.4,
1509,SBT4050,1,4,3.64446,4.0006,11756.173,21.6,
1509,SBT4050,1,4,3.67567,4.0003,11756.173,21.7,
1509,SBT4050,1,4,3.70707,3.9998,11756.173,21.7,
1509,SBT4050,1,4,3.73148,3.9997,11756.173,21.7,
1509,SBT4050,1,4,3.75089,3.9996,11756.173,21.7,
1509,SBT4050,1,4,3.771108,4,11756.173,21.7,
1509,SBT4050,1,4,3.792692,4.0006,11756.173,21.8,
1509,SBT4050,1,4,3.814918,3.9997,11756.173,21.9,
1509,SBT4050,1,4,3.83788,4.0003,11756.173,21.9,
1509,SBT4050,1,4,3.86403,4.0003,11756.173,22,
1509,SBT4050,1,4,3.894314,4,11756.173,22,
1509,SBT4050,1,4,3.9272,3.9998,11756.173,22,
1509,SBT4050,1,4,3.96181,4,11756.173,22.1,
1509,SBT4050,1,4,3.996462,4.0005,11756.173,22.1,
1509,SBT4050,1,4,4.03044,3.9999,11756.173,22.1,
1509,SBT4050,1,4,4.06407,4,11756.173,22.1,
1509,SBT4050,1,4,4.10001,4.0002,11756.173,22.1,
1509,SBT4050,1,4,4.14114,3.9998,11756.173,22.1,
1509,SBT4050,1,4,4.18631,4.0003,11756.173,22.1,
1509,SBT4050,1,4,4.199994,3.2363,11756.173,22.1,
1509,SBT4050,1,4,4.20023,2.6346,11756.173,21.9,
1509,SBT4050,1,4,4.20028,2.2299,11756.173,21.6,
1509,SBT4050,1,4,4.200006,1.9087,11756.173,21.4,
1509,SBT4050,1,4,4.2002,1.6348,11756.173,21.2,
1509,SBT4050,1,4,4.20015,1.3903,11756.173,21,
1509,SBT4050,1,4,4.19985,1.173,11756.173,20.9,
1509,SBT4050,1,4,4.20011,0.9847,11756.173,20.8,
1509,SBT4050,1,4,4.20023,0.8275,11756.173,20.7,
1509,SBT4050,1,4,4.20017,0.6985,11756.173,20.6,
1509,SBT4050,1,4,4.2002,0.5888,11756.173,20.5,
1509,SBT4050,1,4,4.20051,0.4997,11756.173,20.5,
1509,SBT4050,1,4,4.20026,0.42755,11756.173,20.4,
1509,SBT4050,1,4,4.200268,0.36297,11756.173,20.4,
1509,SBT4050,1,4,4.200304,0.31352,11756.173,20.4,
1509,SBT4050,1,4,4.20013,0.27156,11756.173,20.3,
1509,SBT4050,1,4,4.20022,0.23624,11756.173,20.4,
1509,SBT4050,1,4,4.20017,0.20978,11756.173,20.4,
1509,SBT4050,1,4,4.19989,0.18534,11756.173,20.4,
1509,SBT4050,1,4,4.20023,0.1627,11756.173,20.4,
1509,SBT4050,1,4,4.19992,0.14473,11756.173,20.4,
1509,SBT4050,1,4,4.19984,0.12989,11756.173,20.4,
1509,SBT4050,1,4,4.20008,0.11373,11756.173,20.4,
1509,SBT4050,1,4,4.200268,0.10426,11756.173,20.4,
1509,SBT4050,1,4,4.194688,0,11756.173,20.3,
1509,SBT4050,1,4,4.19232,0,11756.173,20.4,
1509,SBT4050,1,4,4.1907,0,11756.173,20.3,
1509,SBT4050,1,4,4.18922,0,11756.173,20.3,
1509,SBT4050,1,4,4.18763,0,11756.173,20.3,
1509,SBT4050,1,4,4.18643,0,11756.173,20.3,
1509,SBT4050,1,4,4.18578,0,11756.173,20.3,
1509,SBT4050,1,4,4.18498,0,11756.173,20.4,
1509,SBT4050,1,4,4.184174,0,11756.173,20.4,
1509,SBT4050,1,4,4.18325,0,11756.173,20.3,
1509,SBT4050,1,4,4.18273,0,11756.173,20.4,
1509,SBT4050,1,4,4.18244,0,11756.173,20.4,
1509,SBT4050,1,4,4.18167,0,11756.173,20.3,
1509,SBT4050,1,4,4.18086,0,11756.173,20.4,
1509,SBT4050,1,4,4.18067,0,11756.173,20.4,
1509,SBT4050,1,4,4.18033,0,11756.173,20.4,
1509,SBT4050,1,4,4.17972,0,11756.173,20.4,
1509,SBT4050,1,4,4.17959,0,11756.173,20.4,
1509,SBT4050,1,4,4.17923,0,11756.173,20.4,
1509,SBT4050,1,4,4.17867,0,11756.173,20.3,
1509,SBT4050,1,4,4.1784,0,11756.173,20.3,
1509,SBT4050,1,4,4.17819,0,11756.173,20.3,
1509,SBT4050,1,4,4.17758,0,11756.173,20.3,
1509,SBT4050,1,4,4.17733,0,11756.173,20.4,
1509,SBT4050,1,4,4.177246,0,11756.173,20.3,
1509,SBT4050,1,4,4.17689,0,11756.173,20.3,
1509,SBT4050,1,4,4.17647,0,11756.173,20.3,
1509,SBT4050,1,4,4.17612,0,11756.173,20.3,
1509,SBT4050,1,4,4.17633,0,11756.173,20.3,
1509,SBT4050,1,4,4.17614,0,11756.173,20.3,
1509,SBT4050,1,4,4.175896,0,11756.173,20.3,
1509,SBT4050,1,4,4.17536,0,11756.173,20.2,
1509,SBT4050,1,4,4.17546,0,11756.173,20.3,
1509,SBT4050,1,4,4.17533,0,11756.173,20.3,
1509,SBT4050,1,4,4.17519,0,11756.173,20.3,
1509,SBT4050,1,4,4.174988,0,11756.173,20.3,
1509,SBT4050,1,4,4.1749,0,11756.173,20.2,
1509,SBT4050,1,4,4.17461,0,11756.173,20.3,
1509,SBT4050,1,4,4.17445,0,11756.173,20.3,
1509,SBT4050,1,4,4.17449,0,11756.173,20.2,
1509,SBT4050,1,4,4.17412,0,11756.173,20.2,
1509,SBT4050,1,4,4.174032,0,11756.173,20.2,
1509,SBT4050,1,4,4.17393,0,11756.173,20.2,
1509,SBT4050,1,4,4.17376,0,11756.173,20.2,
1509,SBT4050,1,4,4.17368,0,11756.173,20.3,
1509,SBT4050,1,4,4.17359,0,11756.173,20.2,
1509,SBT4050,1,4,4.113188,-0.19802,11775.57,20.3,
1509,SBT4050,1,4,4.06069,2.31,11883.487,20.9,
1509,SBT4050,1,4,3.70566,-14.497,11927.987,20.9,
1509,SBT4050,1,4,3.831506,-5.945,12081.453,22.2,
1509,SBT4050,1,4,3.90701,-5.3,12120.382,22,
1509,SBT4050,1,4,4.0035,1.5859,12208.112,22,
1509,SBT4050,1,4,3.96699,-0.20902,12265.486,21.9,
1509,SBT4050,1,4,3.81544,-3.9969,12338.613,21.7,
1509,SBT4050,1,4,3.72237,-6.112,12416.011,21.6,
1509,SBT4050,1,4,3.63427,-9.511,12485.596,21.6,
1509,SBT4050,1,4,3.77841,-0.974,12592.155,22,
1509,SBT4050,1,4,3.65185,-4.787,12696.205,22,
1509,SBT4050,1,4,3.55858,-7.186,12799.243,22,
1509,SBT4050,1,4,3.72489,-1.8179,12848.139,22,
1509,SBT4050,1,4,3.53423,-6.008,12949.532,21.9,
1509,SBT4050,1,4,3.53819,-7.302,12997.518,21.7,
1509,SBT4050,1,4,3.50462,-6.104,13076.017,21.6,
1509,SBT4050,1,4,3.661374,0.6919,13135.376,21.7,
1509,SBT4050,1,4,3.47117,-5.128,13215.913,21.6,
1509,SBT4050,1,4,3.62305,-0.08,13273.577,21.7,
1509,SBT4050,1,4,3.43801,-3.2181,13414.27,22.4,
1509,SBT4050,1,4,3.660002,4,13469.725,22.4,
1509,SBT4050,1,4,3.64667,3.9997,13525.336,22.2,
1509,SBT4050,1,4,3.4748,-0.865,13610.299,22.1,
1509,SBT4050,1,4,3.49667,-0.12401,13663.135,22,
1509,SBT4050,1,4,3.51552,-0.06,13730.21,22,
1509,SBT4050,1,4,3.41757,-6.518,13742.059,21.6,
1509,SBT4050,1,4,3.40631,-5.714,13795.023,21.4,
1509,SBT4050,1,4,3.34346,-7.353,13841.166,21.3,
1509,SBT4050,1,4,3.47029,-0.847,13900.877,21.5,
1509,SBT4050,1,4,3.67337,3.9997,13907.807,21.2,
1509,SBT4050,1,4,3.55529,-0.39402,13928.9,21.1,
1509,SBT4050,1,4,3.48507,-3.6811,13947.574,20.9,
1509,SBT4050,1,4,3.51367,0.041996,14005.961,21.2,
1509,SBT4050,1,4,3.55486,-0.046001,14012.904,21,
1509,SBT4050,1,4,3.54651,-0.039,14025.345,20.8,
1509,SBT4050,1,4,3.54449,-0.045996,14026.322,20.7,
1509,SBT4050,1,4,3.54446,-0.036998,14027.303,20.5,
1509,SBT4050,1,4,3.543742,-0.044,14028.215,20.5,
1509,SBT4050,1,4,3.54402,-0.039995,14029.098,20.4,
1509,SBT4050,1,4,3.54367,-0.038001,14029.948,20.4,
1509,SBT4050,1,4,3.54329,-0.039998,14030.807,20.4,
1509,SBT4050,1,4,3.54313,-0.035992,14031.595,20.4,
1509,SBT4050,1,4,3.5433,-0.016997,14032.361,20.4,
1509,SBT4050,1,4,3.54236,-0.034001,14033.131,20.4,
1509,SBT4050,1,4,3.54397,0,14033.258,20.4,
1509,SBT4050,1,4,3.54434,0,14033.258,20.4,
1509,SBT4050,1,4,3.54451,0,14033.258,20.4,
1509,SBT4050,1,4,3.54443,0,14033.258,20.3,
1509,SBT4050,1,4,3.73006,4,14033.258,20.6,
1509,SBT4050,1,4,3.75558,4.0003,14033.258,20.9,
1509,SBT4050,1,4,3.776858,4.0001,14033.258,21.2,
1509,SBT4050,1,4,3.800524,3.9995,14033.258,21.5,
1509,SBT4050,1,4,3.825798,4,14033.258,21.7,
1509,SBT4050,1,4,3.85134,3.9995,14033.258,21.8,
1509,SBT4050,1,4,3.880322,4,14033.258,21.9,
1509,SBT4050,1,4,3.91287,4.0003,14033.258,22,
1509,SBT4050,1,4,3.94748,3.9997,14033.258,22.1,
1509,SBT4050,1,4,3.98252,3.9997,14033.258,22.1,
1509,SBT4050,1,4,4.01749,3.9997,14033.258,22.1,
1509,SBT4050,1,4,4.05208,4.0003,14033.258,22.1,
1509,SBT4050,1,4,4.0873,4.0003,14033.258,22,
1509,SBT4050,1,4,4.12775,4,14033.258,22.1,
1509,SBT4050,1,4,4.17283,3.9998,14033.258,22.1,
1509,SBT4050,1,4,4.20006,3.4724,14033.258,22.1,
1509,SBT4050,1,4,4.2003,2.7692,14033.258,21.9,
1509,SBT4050,1,4,4.1999,2.3184,14033.258,21.7,
1509,SBT4050,1,4,4.20009,1.9791,14033.258,21.5,
1509,SBT4050,1,4,4.20006,1.6917,14033.258,21.3,
1509,SBT4050,1,4,4.20009,1.4401,14033.258,21.1,
1509,SBT4050,1,4,4.200146,1.216,14033.258,21,
1509,SBT4050,1,4,4.20022,1.0218,14033.258,20.8,
1509,SBT4050,1,4,4.20004,0.8615,14033.258,20.8,
1509,SBT4050,1,4,4.20011,0.7237,14033.258,20.7,
1509,SBT4050,1,4,4.20007,0.6124,14033.258,20.6,
1509,SBT4050,1,4,4.20023,0.5169,14033.258,20.6,
1509,SBT4050,1,4,4.20005,0.43983,14033.258,20.5,
1509,SBT4050,1,4,4.200158,0.37742,14033.258,20.4,
1509,SBT4050,1,4,4.20005,0.32611,14033.258,20.4,
1509,SBT4050,1,4,4.20035,0.28103,14033.258,20.4,
1509,SBT4050,1,4,4.200158,0.24293,14033.258,20.4,
1509,SBT4050,1,4,4.20023,0.21438,14033.258,20.3,
1509,SBT4050,1,4,4.20011,0.19027,14033.258,20.3,
1509,SBT4050,1,4,4.20011,0.16783,14033.258,20.3,
1509,SBT4050,1,4,4.20019,0.14952,14033.258,20.3,
1509,SBT4050,1,4,4.1998,0.13378,14033.258,20.3,
1509,SBT4050,1,4,4.20005,0.12051,14033.258,20.3,
1509,SBT4050,1,4,4.19996,0.11071,14033.258,20.3,
1509,SBT4050,1,4,4.19628,0,14033.258,20.2,
1509,SBT4050,1,4,4.19291,0,14033.258,20.3,
1509,SBT4050,1,4,4.191482,0,14033.258,20.3,
1509,SBT4050,1,4,4.18983,0,14033.258,20.3,
1509,SBT4050,1,4,4.18809,0,14033.258,20.3,
1509,SBT4050,1,4,4.18708,0,14033.258,20.2,
1509,SBT4050,1,4,4.185982,0,14033.258,20.2,
1509,SBT4050,1,4,4.18476,0,14033.258,20.3,
1509,SBT4050,1,4,4.184412,0,14033.258,20.3,
1509,SBT4050,1,4,4.18363,0,14033.258,20.2,
1509,SBT4050,1,4,4.183004,0,14033.258,20.3,
1509,SBT4050,1,4,4.18246,0,14033.258,20.2,
1509,SBT4050,1,4,4.18186,0,14033.258,20.3,
1509,SBT4050,1,4,4.18136,0,14033.258,20.3,
1509,SBT4050,1,4,4.18083,0,14033.258,20.3,
1509,SBT4050,1,4,4.1803,0,14033.258,20.3,
1509,SBT4050,1,4,4.18,0,14033.258,20.3,
1509,SBT4050,1,4,4.17948,0,14033.258,20.3,
1509,SBT4050,1,4,4.17922,0,14033.258,20.3,
1509,SBT4050,1,4,4.178614,0,14033.258,20.3,
1509,SBT4050,1,4,4.17874,0,14033.258,20.3,
1509,SBT4050,1,4,4.17815,0,14033.258,20.3,
1509,SBT4050,1,4,4.17791,0,14033.258,20.3,
1509,SBT4050,1,4,4.17746,0,14033.258,20.3,
1509,SBT4050,1,4,4.17695,0,14033.258,20.3,
1509,SBT4050,1,4,4.17717,0,14033.258,20.3,
1509,SBT4050,1,4,4.176906,0,14033.258,20.3,
1509,SBT4050,1,4,4.17646,0,14033.258,20.4,
1509,SBT4050,1,4,4.17635,0,14033.258,20.3,
1509,SBT4050,1,4,4.1761,0,14033.258,20.3,
1509,SBT4050,1,4,4.17582,0,14033.258,20.3,
1509,SBT4050,1,4,4.1755,0,14033.258,20.3,
1509,SBT4050,1,4,4.17561,0,14033.258,20.4,
1509,SBT4050,1,4,4.17533,0,14033.258,20.3,
1509,SBT4050,1,4,4.17524,0,14033.258,20.3,
1509,SBT4050,1,4,4.17486,0,14033.258,20.3,
1509,SBT4050,1,4,4.17499,0,14033.258,20.3,
1509,SBT4050,1,4,4.174874,0,14033.258,20.3,
1509,SBT4050,1,4,4.174466,0,14033.258,20.3,
1509,SBT4050,1,4,4.174494,0,14033.258,20.3,
1509,SBT4050,1,4,4.17388,0,14033.258,20.3,
1509,SBT4050,1,4,4.17411,0,14033.258,20.3,
1509,SBT4050,1,4,4.17368,0,14033.258,20.3,
1509,SBT4050,1,4,4.17393,0,14033.258,20.3,
1509,SBT4050,1,4,4.17365,0,14033.258,20.3,
1509,SBT4050,1,4,4.17343,0,14033.258,20.3,
1509,SBT4050,1,4,4.17558,0.121,14033.297,20.3,
1509,SBT4050,1,4,3.881608,-8.473,14119.999,20.9,
1509,SBT4050,1,4,3.90715,-4.1457,14220.468,21.6,
1509,SBT4050,1,4,3.920686,-3.1353,14304.851,21.8,
1509,SBT4050,1,4,3.64331,-13.137,14418.535,21.8,
1509,SBT4050,1,4,3.762358,-5.782,14532.285,22.2,
1509,SBT4050,1,4,3.96837,3.4708,14607.869,22.1,
1509,SBT4050,1,4,3.94299,2.9771,14652.836,21.7,
1509,SBT4050,1,4,3.90332,1.5949,14722.267,21.9,
1509,SBT4050,1,4,3.9352,3.9999,14820.297,22.3,
1509,SBT4050,1,4,3.64325,-9.108,14894.743,22.3,
1509,SBT4050,1,4,3.76531,-1.566,14971.522,22,
1509,SBT4050,1,4,3.88386,2.4148,15005.909,21.6,
1509,SBT4050,1,4,3.83001,-0.018997,15016.907,21.2,
1509,SBT4050,1,4,3.845154,-1.1039,15018.473,21.1,
1509,SBT4050,1,4,3.68645,-3.7284,15087.786,21.1,
1509,SBT4050,1,4,3.57528,-10.834,15124.918,21.3,
1509,SBT4050,1,4,3.83665,-0.7159,15160.231,21.4,
1509,SBT4050,1,4,3.829846,1.1771,15213.273,21.4,
1509,SBT4050,1,4,3.76436,-1.8388,15224.033,21,
1509,SBT4050,1,4,3.78306,-1.5419,15248.466,20.9,
1509,SBT4050,1,4,3.863992,1.3389,15254.866,20.7,
1509,SBT4050,1,4,3.90078,3.2091,15274.942,20.9,
1509,SBT4050,1,4,3.71854,-4.7069,15327.486,21.2,
1509,SBT4050,1,4,3.42767,-14.3,15425.74,21.4,
1509,SBT4050,1,4,3.68833,-0.14898,15515.34,21.9,
1509,SBT4050,1,4,3.59166,-3.5988,15601.647,21.7,
1509,SBT4050,1,4,3.4526,-5.677,15724.01,21.8,
1509,SBT4050,1,4,3.4642,-4.823,15831.427,22.2,
1509,SBT4050,1,4,3.68132,3.9995,15900.894,22,
1509,SBT4050,1,4,3.64617,1.9158,15945.861,21.7,
1509,SBT4050,1,4,3.66641,4.0003,16015.292,21.8,
1509,SBT4050,1,4,3.64249,3.9997,16113.321,22.3,
1509,SBT4050,1,4,3.35776,-7.288,16196.453,22.4,
1509,SBT4050,1,4,3.49685,-0.598,16265.509,22.1,
1509,SBT4050,1,4,3.53585,-0.506,16299.009,21.7,
1509,SBT4050,1,4,3.59662,2.013,16309.935,21.3,
1509,SBT4050,1,4,3.41927,-7.714,16316.536,21,
1509,SBT4050,1,4,3.59784,4.0001,16381.474,21.1,
1509,SBT4050,1,4,3.33836,-7.063,16428.46,21.3,
1509,SBT4050,1,4,3.256954,-14.277,16460.398,21.4,
1509,SBT4050,1,4,3.53552,-0.09897,16506.307,21.4,
1509,SBT4050,1,4,3.44988,-3.3609,16519.181,21.1,
1509,SBT4050,1,4,3.52283,-0.46596,16542.544,20.9,
1509,SBT4050,1,4,3.55328,-0.026997,16547.916,20.7,
1509,SBT4050,1,4,3.553126,-0.5149,16568.017,20.8,
1509,SBT4050,1,4,3.53433,0,16619.305,21.2,
1509,SBT4050,1,4,3.538688,0,16619.305,20.9,
1509,SBT4050,1,4,3.54024,0,16619.305,20.7,
1509,SBT4050,1,4,3.54091,0,16619.305,20.6,
1509,SBT4050,1,4,3.68242,3.9998,16619.305,20.5,
1509,SBT4050,1,4,3.739474,4,16619.305,20.8,
1509,SBT4050,1,4,3.7618,4,16619.305,21.1,
1509,SBT4050,1,4,3.784,3.9997,16619.305,21.4,
1509,SBT4050,1,4,3.80875,3.9999,16619.305,21.6,
1509,SBT4050,1,4,3.83419,4.0001,16619.305,21.8,
1509,SBT4050,1,4,3.86132,3.9998,16619.305,21.9,
1509,SBT4050,1,4,3.89215,4.0002,16619.305,22,
1509,SBT4050,1,4,3.92533,4.0003,16619.305,22.1,
1509,SBT4050,1,4,3.9606,3.9998,16619.305,22.2,
1509,SBT4050,1,4,3.99587,3.9997,16619.305,22.1,
1509,SBT4050,1,4,4.03085,3.9992,16619.305,22.2,
1509,SBT4050,1,4,4.06545,4.0006,16619.305,22.1,
1509,SBT4050,1,4,4.10213,3.9997,16619.305,22.1,
1509,SBT4050,1,4,4.14425,4.0003,16619.305,22.2,
1509,SBT4050,1,4,4.190816,3.9991,16619.305,22.1,
1509,SBT4050,1,4,4.20028,3.1587,16619.305,22.1,
1509,SBT4050,1,4,4.20025,2.5761,16619.305,21.9,
1509,SBT4050,1,4,4.20008,2.1747,16619.305,21.7,
1509,SBT4050,1,4,4.20027,1.8617,16619.305,21.4,
1509,SBT4050,1,4,4.19995,1.5861,16619.305,21.3,
1509,SBT4050,1,4,4.20013,1.3451,16619.305,21.1,
1509,SBT4050,1,4,4.200092,1.1345,16619.305,21,
1509,SBT4050,1,4,4.2,0.9544,16619.305,20.8,
1509,SBT4050,1,4,4.20014,0.804,16619.305,20.8,
1509,SBT4050,1,4,4.199758,0.6751,16619.305,20.7,
1509,SBT4050,1,4,4.20015,0.5725,16619.305,20.6,
1509,SBT4050,1,4,4.20012,0.4865,16619.305,20.6,
1509,SBT4050,1,4,4.20013,0.41332,16619.305,20.5,
1509,SBT4050,1,4,4.20008,0.35512,16619.305,20.5,
1509,SBT4050,1,4,4.19995,0.30869,16619.305,20.4,
1509,SBT4050,1,4,4.20019,0.26651,16619.305,20.4,
1509,SBT4050,1,4,4.20018,0.23252,16619.305,20.4,
1509,SBT4050,1,4,4.20029,0.20713,16619.305,20.4,
1509,SBT4050,1,4,4.20021,0.18184,16619.305,20.4,
1509,SBT4050,1,4,4.200092,0.16138,16619.305,20.4,
1509,SBT4050,1,4,4.2002,0.142,16619.305,20.4,
1509,SBT4050,1,4,4.20025,0.12984,16619.305,20.3,
1509,SBT4050,1,4,4.19996,0.11532,16619.305,20.3,
1509,SBT4050,1,4,4.1999,0.10477,16619.305,20.3,
1509,SBT4050,1,4,4.19576,0,16619.305,20.3,
1509,SBT4050,1,4,4.193054,0,16619.305,20.3,
1509,SBT4050,1,4,4.19125,0,16619.305,20.3,
1509,SBT4050,1,4,4.18951,0,16619.305,20.3,
1509,SBT4050,1,4,4.18852,0,16619.305,20.3,
1509,SBT4050,1,4,4.18714,0,16619.305,20.3,
1509,SBT4050,1,4,4.18618,0,16619.305,20.3,
1509,SBT4050,1,4,4.18526,0,16619.305,20.3,
1509,SBT4050,1,4,4.18477,0,16619.305,20.3,
1509,SBT4050,1,4,4.18353,0,16619.305,20.3,
1509,SBT4050,1,4,4.18312,0,16619.305,20.3,
1509,SBT4050,1,4,4.18245,0,16619.305,20.3,
1509,SBT4050,1,4,4.1824,0,16619.305,20.3,
1509,SBT4050,1,4,4.18142,0,16619.305,20.3,
1509,SBT4050,1,4,4.1812,0,16619.305,20.3,
1509,SBT4050,1,4,4.18052,0,16619.305,20.3,
1509,SBT4050,1,4,4.18008,0,16619.305,20.3,
1509,SBT4050,1,4,4.17949,0,16619.305,20.3,
1509,SBT4050,1,4,4.17941,0,16619.305,20.3,
1509,SBT4050,1,4,4.179056,0,16619.305,20.3,
1509,SBT4050,1,4,4.178738,0,16619.305,20.3,
1509,SBT4050,1,4,4.17856,0,16619.305,20.3,
1509,SBT4050,1,4,4.17821,0,16619.305,20.3,
1509,SBT4050,1,4,4.17772,0,16619.305,20.3,
1509,SBT4050,1,4,4.17776,0,16619.305,20.4,
1509,SBT4050,1,4,4.177266,0,16619.305,20.4,
1509,SBT4050,1,4,4.17712,0,16619.305,20.3,
1509,SBT4050,1,4,4.17676,0,16619.305,20.4,
1509,SBT4050,1,4,4.17669,0,16619.305,20.4,
1509,SBT4050,1,4,4.17661,0,16619.305,20.4,
1509,SBT4050,1,4,4.17622,0,16619.305,20.4,
1509,SBT4050,1,4,4.1761,0,16619.305,20.4,
1509,SBT4050,1,4,4.17576,0,16619.305,20.4,
1509,SBT4050,1,4,4.17579,0,16619.305,20.4,
1509,SBT4050,1,4,4.17568,0,16619.305,20.4,
1509,SBT4050,1,4,4.17519,0,16619.305,20.4,
1509,SBT4050,1,4,4.17518,0,16619.305,20.4,
1509,SBT4050,1,4,4.17473,0,16619.305,20.4,
1509,SBT4050,1,4,4.174662,0,16619.305,20.4,
1509,SBT4050,1,4,4.174852,0,16619.305,20.4,
1509,SBT4050,1,4,4.174332,0,16619.305,20.4,
1509,SBT4050,1,4,4.17442,0,16619.305,20.4,
1509,SBT4050,1,4,4.17463,0,16619.305,20.4,
1509,SBT4050,1,4,4.17424,0,16619.305,20.4,
1509,SBT4050,1,4,4.17398,0,16619.305,20.4,
1509,SBT4050,1,4,4.173756,0,16619.305,20.4,
1509,SBT4050,1,4,4.18057,0.18298,16619.305,20.4,
1509,SBT4050,1,4,3.973366,-4.6458,16671.487,20.5,
1509,SBT4050,1,4,4.15064,3.9999,16741.694,21.2,
1509,SBT4050,1,4,3.94039,-5.096,16791.267,21.3,
1509,SBT4050,1,4,3.74795,-11.161,16865.41,21.3,
1509,SBT4050,1,4,3.75229,-7.119,17011.347,22.2,
1509,SBT4050,1,4,3.9911,4,17133.287,22.8,
1509,SBT4050,1,4,3.92613,-0.042994,17179.268,22.4,
1509,SBT4050,1,4,3.68763,-7.604,17276.153,22.2,
1509,SBT4050,1,4,3.73994,-3.8354,17366.368,22.2,
1509,SBT4050,1,4,3.65354,-6.722,17421.275,21.9,
1509,SBT4050,1,4,3.59841,-5.268,17535.229,22.3,
1509,SBT4050,1,4,3.82011,2.5799,17665.878,23.4,
1509,SBT4050,1,4,3.57462,-8.947,17728.195,22.9,
1509,SBT4050,1,4,3.490558,-10.485,17827.889,22.7,
1509,SBT4050,1,4,3.69378,0.4809,17914.068,22.6,
1509,SBT4050,1,4,3.46973,-6.57,18008.13,22.4,
1509,SBT4050,1,4,3.4568,-7.984,18089.186,22.4,
1509,SBT4050,1,4,3.63375,-0.06299,18132.478,21.9,
1509,SBT4050,1,4,3.61334,-1.213,18155.583,21.4,
1509,SBT4050,1,4,3.60761,-0.20699,18232.769,21.7,
1509,SBT4050,1,4,3.59247,-0.07199,18318.124,22,
1509,SBT4050,1,4,3.57495,-0.06799,18379.007,21.8,
1509,SBT4050,1,4,3.587128,2.9842,18478.803,22.2,
1509,SBT4050,1,4,3.46035,-4.8149,18529.561,22,
1509,SBT4050,1,4,3.57175,-1.648,18551.513,21.6,
1509,SBT4050,1,4,3.606552,4,18612.093,21.5,
1509,SBT4050,1,4,3.68238,4.0003,18637.518,21.4,
1509,SBT4050,1,4,3.47909,-4.2264,18678.685,21.3,
1509,SBT4050,1,4,3.35399,-11.087,18693.945,21,
1509,SBT4050,1,4,3.616438,2.3781,18764.224,21.5,
1509,SBT4050,1,4,3.5943,1.701,18813.872,21.7,
1509,SBT4050,1,4,3.5815,0.7249,18851.382,21.4,
1509,SBT4050,1,4,3.61181,2.3377,18919.584,21.8,
1509,SBT4050,1,4,3.55408,-0.016,18939.788,21.5,
1509,SBT4050,1,4,3.593168,2.7486,19005.091,21.6,
1509,SBT4050,1,4,3.50505,-1.2419,19042.137,21.5,
1509,SBT4050,1,4,3.53614,-0.031999,19046.352,21.2,
1509,SBT4050,1,4,3.537322,-0.00899,19046.722,20.9,
1509,SBT4050,1,4,3.53796,-0.015999,19047.053,20.7,
1509,SBT4050,1,4,3.53865,-0.012001,19047.37,20.6,
1509,SBT4050,1,4,3.53959,0,19047.433,20.5,
1509,SBT4050,1,4,3.53988,0,19047.433,20.5,
1509,SBT4050,1,4,3.540576,0,19047.433,20.4,
1509,SBT4050,1,4,3.54093,0,19047.433,20.4,
1509,SBT4050,1,4,3.72531,4.0001,19047.433,20.6,
1509,SBT4050,1,4,3.75339,3.9996,19047.433,21,
1509,SBT4050,1,4,3.774736,4,19047.433,21.3,
1509,SBT4050,1,4,3.79854,4.0004,19047.433,21.5,
1509,SBT4050,1,4,3.823242,4,19047.433,21.7,
1509,SBT4050,1,4,3.849642,3.9997,19047.433,21.9,
1509,SBT4050,1,4,3.87865,3.9998,19047.433,22,
1509,SBT4050,1,4,3.91066,4,19047.433,22.1,
1509,SBT4050,1,4,3.945586,3.9995,19047.433,22.1,
1509,SBT4050,1,4,3.98091,4.0006,19047.433,22.2,
1509,SBT4050,1,4,4.01587,4.0006,19047.433,22.2,
1509,SBT4050,1,4,4.0503,3.9997,19047.433,22.3,
1509,SBT4050,1,4,4.08557,3.9997,19047.433,22.3,
1509,SBT4050,1,4,4.12556,4,19047.433,22.3,
1509,SBT4050,1,4,4.170808,3.9997,19047.433,22.3,
1509,SBT4050,1,4,4.200198,3.516,19047.433,22.3,
1509,SBT4050,1,4,4.20003,2.7938,19047.433,22.1,
1509,SBT4050,1,4,4.20013,2.3317,19047.433,21.9,
1509,SBT4050,1,4,4.20005,1.9907,19047.433,21.6,
1509,SBT4050,1,4,4.19995,1.6995,19047.433,21.4,
1509,SBT4050,1,4,4.20031,1.4415,19047.433,21.3,
1509,SBT4050,1,4,4.20005,1.218,19047.433,21.1,
1509,SBT4050,1,4,4.20021,1.0248,19047.433,21,
1509,SBT4050,1,4,4.20014,0.8614,19047.433,20.9,
1509,SBT4050,1,4,4.200162,0.7255,19047.433,20.8,
1509,SBT4050,1,4,4.20003,0.6129,19047.433,20.8,
1509,SBT4050,1,4,4.20028,0.5166,19047.433,20.7,
1509,SBT4050,1,4,4.20001,0.44483,19047.433,20.6,
1509,SBT4050,1,4,4.20001,0.37859,19047.433,20.6,
1509,SBT4050,1,4,4.200186,0.32752,19047.433,20.6,
1509,SBT4050,1,4,4.20007,0.28455,19047.433,20.5,
1509,SBT4050,1,4,4.20003,0.24841,19047.433,20.5,
1509,SBT4050,1,4,4.20007,0.21813,19047.433,20.5,
1509,SBT4050,1,4,4.19991,0.19274,19047.433,20.5,
1509,SBT4050,1,4,4.20007,0.16993,19047.433,20.5,
1509,SBT4050,1,4,4.20008,0.15037,19047.433,20.5,
1509,SBT4050,1,4,4.199876,0.13436,19047.433,20.5,
1509,SBT4050,1,4,4.19995,0.12212,19047.433,20.5,
1509,SBT4050,1,4,4.20036,0.10851,19047.433,20.5,
1509,SBT4050,1,4,4.19704,0,19047.433,20.4,
1509,SBT4050,1,4,4.19357,0,19047.433,20.4,
1509,SBT4050,1,4,4.19151,0,19047.433,20.4,
1509,SBT4050,1,4,4.19009,0,19047.433,20.4,
1509,SBT4050,1,4,4.188536,0,19047.433,20.4,
1509,SBT4050,1,4,4.187348,0,19047.433,20.4,
1509,SBT4050,1,4,4.18648,0,19047.433,20.4,
1509,SBT4050,1,4,4.18558,0,19047.433,20.4,
1509,SBT4050,1,4,4.184626,0,19047.433,20.4,
1509,SBT4050,1,4,4.18371,0,19047.433,20.4,
1509,SBT4050,1,4,4.18325,0,19047.433,20.4,
1509,SBT4050,1,4,4.1828,0,19047.433,20.4,
1509,SBT4050,1,4,4.18196,0,19047.433,20.4,
1509,SBT4050,1,4,4.18141,0,19047.433,20.4,
1509,SBT4050,1,4,4.180756,0,19047.433,20.4,
1509,SBT4050,1,4,4.18071,0,19047.433,20.4,
1509,SBT4050,1,4,4.1799,0,19047.433,20.4,
1509,SBT4050,1,4,4.17976,0,19047.433,20.4,
1509,SBT4050,1,4,4.179006,0,19047.433,20.4,
1509,SBT4050,1,4,4.17897,0,19047.433,20.4,
1509,SBT4050,1,4,4.17851,0,19047.433,20.4,
1509,SBT4050,1,4,4.17811,0,19047.433,20.4,
1509,SBT4050,1,4,4.17779,0,19047.433,20.4,
1509,SBT4050,1,4,4.1776,0,19047.433,20.4,
1509,SBT4050,1,4,4.1775,0,19047.433,20.4,
1509,SBT4050,1,4,4.17714,0,19047.433,20.4,
1509,SBT4050,1,4,4.176836,0,19047.433,20.4,
1509,SBT4050,1,4,4.17667,0,19047.433,20.4,
1509,SBT4050,1,4,4.1764,0,19047.433,20.4,
1509,SBT4050,1,4,4.17622,0,19047.433,20.4,
1509,SBT4050,1,4,4.17597,0,19047.433,20.4,
1509,SBT4050,1,4,4.17599,0,19047.433,20.4,
1509,SBT4050,1,4,4.17552,0,19047.433,20.4,
1509,SBT4050,1,4,4.17535,0,19047.433,20.4,
1509,SBT4050,1,4,4.17491,0,19047.433,20.4,
1509,SBT4050,1,4,4.17511,0,19047.433,20.4,
1509,SBT4050,1,4,4.17499,0,19047.433,20.4,
1509,SBT4050,1,4,4.17452,0,19047.433,20.4,
1509,SBT4050,1,4,4.17455,0,19047.433,20.4,
1509,SBT4050,1,4,4.174558,0,19047.433,20.4,
1509,SBT4050,1,4,4.17438,0,19047.433,20.4,
1509,SBT4050,1,4,4.17425,0,19047.433,20.4,
1509,SBT4050,1,4,4.17383,0,19047.433,20.4,
1509,SBT4050,1,4,4.173722,0,19047.433,20.4,
1509,SBT4050,1,4,4.17377,0,19047.433,20.4,
1509,SBT4050,1,4,4.173686,0,19047.433,20.5,
1509,SBT4050,1,4,4.173496,0,19047.433,20.4,
1509,SBT4050,1,4,4.01655,-2.307,19101.65,20.6,
1509,SBT4050,1,4,3.85208,-8.423,19204.578,21.4,
1509,SBT4050,1,4,4.10467,3.9996,19268.44,21.7,
1509,SBT4050,1,4,3.72106,-10.688,19363.376,22,
1509,SBT4050,1,4,3.83601,-5.797,19432.788,22.2,
1509,SBT4050,1,4,3.8511,-3.7428,19514.596,22.1,
1509,SBT4050,1,4,3.82966,-5.549,19557.4,21.8,
1509,SBT4050,1,4,3.94125,-0.026997,19607.678,21.6,
1509,SBT4050,1,4,3.71249,-6.149,19707.494,21.6,
1509,SBT4050,1,4,3.960624,3.9998,19792.474,22.2,
1509,SBT4050,1,4,3.86758,-0.06599,19855.857,22.3,
1509,SBT4050,1,4,3.87324,4.0001,19974.789,22.7,
1509,SBT4050,1,4,3.76116,0.10299,20048.65,22.5,
1509,SBT4050,1,4,3.61248,-6.57,20124.01,22.3,
1509,SBT4050,1,4,3.63136,-4.4144,20179,21.9,
1509,SBT4050,1,4,3.58282,-6.304,20221.145,21.5,
1509,SBT4050,1,4,3.41913,-12.609,20322.399,21.8,
1509,SBT4050,1,4,3.69069,-0.9659,20384.989,22.1,
1509,SBT4050,1,4,3.45716,-11.89,20452.242,22,
1509,SBT4050,1,4,3.64972,-0.06899,20565.117,22.5,
1509,SBT4050,1,4,3.395746,-9.96,20656.225,22.3,
1509,SBT4050,1,4,3.60476,-0.06399,20724.781,22.1,
1509,SBT4050,1,4,3.57459,-0.07798,20785.873,21.8,
1509,SBT4050,1,4,3.35802,-8.541,20841.945,21.5,
1509,SBT4050,1,4,3.463652,-2.9461,20954.525,22.3,
1509,SBT4050,1,4,3.59101,3.9995,21023.463,22.2,
1509,SBT4050,1,4,3.40187,-2.8586,21101.442,22.4,
1509,SBT4050,1,4,3.37377,-5.029,21154.474,22.2,
1509,SBT4050,1,4,3.49352,-1.6111,21198.06,22.1,
1509,SBT4050,1,4,3.51856,-1.3348,21205.005,21.5,
1509,SBT4050,1,4,3.51547,-0.039,21254.071,21.4,
1509,SBT4050,1,4,3.52758,-0.034004,21254.806,21,
1509,SBT4050,1,4,3.53133,-0.037995,21255.527,20.8,
1509,SBT4050,1,4,3.53359,-0.035991,21256.224,20.6,
1509,SBT4050,1,4,3.53528,-0.036997,21256.799,20.5,
1509,SBT4050,1,4,3.53611,-0.025999,21257.36,20.5,
1509,SBT4050,1,4,3.53655,-0.018999,21257.922,20.5,
1509,SBT4050,1,4,3.53835,0,21257.936,20.4,
1509,SBT4050,1,4,3.53858,0,21257.936,20.4,
1509,SBT4050,1,4,3.53922,0,21257.936,20.4,
1509,SBT4050,1,4,3.5396,-9.8E-05,21257.936,,