File: Dataset/AANDCNet/cell2/cycle_28/Test1573.csv
Test:,1573,,,,,,,
Start Time:,8/9/2021 9:39 PM,,,,,,,
End Time:,8/10/2021 9:56 PM,,,,,,,
Test,Rack,Shelf,Position,Voltage (V),Current (A),Discharge Capacity (mAh),TC_1 (C),
1573,SBT4050,1,5,2.75178,0,0,20,
1573,SBT4050,1,5,3.2261,4.0002,0,20.1,
1573,SBT4050,1,5,3.54591,4,0,20.7,
1573,SBT4050,1,5,3.63035,3.9996,0,21.3,
1573,SBT4050,1,5,3.66143,4.0002,0,21.7,
1573,SBT4050,1,5,3.69092,4.0002,0,21.9,
1573,SBT4050,1,5,3.71982,3.9996,0,22,
1573,SBT4050,1,5,3.74823,3.9999,0,22,
1573,SBT4050,1,5,3.77491,3.9995,0,22.1,
1573,SBT4050,1,5,3.79716,3.9999,0,22.1,
1573,SBT4050,1,5,3.82078,4,0,22.1,
1573,SBT4050,1,5,3.84788,4.0004,0,22.2,
1573,SBT4050,1,5,3.8764,4.0001,0,22.3,
1573,SBT4050,1,5,3.90639,4.0003,0,22.4,
1573,SBT4050,1,5,3.93659,4.0003,0,22.5,
1573,SBT4050,1,5,3.96753,3.9998,0,22.6,
1573,SBT4050,1,5,3.99856,4,0,22.7,
1573,SBT4050,1,5,4.03057,4.0005,0,22.6,
1573,SBT4050,1,5,4.06203,4.0002,0,22.8,
1573,SBT4050,1,5,4.09402,3.9995,0,22.8,
1573,SBT4050,1,5,4.1279,4.0001,0,22.9,
1573,SBT4050,1,5,4.16497,3.9999,0,22.9,
1573,SBT4050,1,5,4.20034,3.8744,0,22.9,
1573,SBT4050,1,5,4.199922,3.0899,0,22.9,
1573,SBT4050,1,5,4.20023,2.5401,0,22.6,
1573,SBT4050,1,5,4.200184,2.1304,0,22.3,
1573,SBT4050,1,5,4.200196,1.8149,0,21.9,
1573,SBT4050,1,5,4.200172,1.5661,0,21.5,
1573,SBT4050,1,5,4.20015,1.3659,0,21.4,
1573,SBT4050,1,5,4.200196,1.1991,0,21.2,
1573,SBT4050,1,5,4.20002,1.0587,0,21,
1573,SBT4050,1,5,4.20003,0.9416,0,20.9,
1573,SBT4050,1,5,4.20009,0.8426,0,20.8,
1573,SBT4050,1,5,4.20001,0.7575,0,20.6,
1573,SBT4050,1,5,4.199922,0.6816,0,20.6,
1573,SBT4050,1,5,4.19983,0.6184,0,20.6,
1573,SBT4050,1,5,4.20009,0.5618,0,20.5,
1573,SBT4050,1,5,4.20002,0.512,0,20.4,
1573,SBT4050,1,5,4.20009,0.47177,0,20.4,
1573,SBT4050,1,5,4.19999,0.4327,0,20.4,
1573,SBT4050,1,5,4.20008,0.39791,0,20.4,
1573,SBT4050,1,5,4.20009,0.36844,0,20.3,
1573,SBT4050,1,5,4.20028,0.34073,0,20.4,
1573,SBT4050,1,5,4.19995,0.31813,0,20.3,
1573,SBT4050,1,5,4.2001,0.29597,0,20.3,
1573,SBT4050,1,5,4.2001,0.27548,0,20.3,
1573,SBT4050,1,5,4.199862,0.25796,0,20.3,
1573,SBT4050,1,5,4.19975,0.24166,0,20.3,
1573,SBT4050,1,5,4.20024,0.22783,0,20.3,
1573,SBT4050,1,5,4.20011,0.21448,0,20.3,
1573,SBT4050,1,5,4.20008,0.2014,0,20.3,
1573,SBT4050,1,5,4.20012,0.19069,0,20.2,
1573,SBT4050,1,5,4.20004,0.18096,0,20.3,
1573,SBT4050,1,5,4.20009,0.17012,0,20.3,
1573,SBT4050,1,5,4.200208,0.16227,0,20.2,
1573,SBT4050,1,5,4.19997,0.15383,0,20.3,
1573,SBT4050,1,5,4.19999,0.14719,0,20.3,
1573,SBT4050,1,5,4.20014,0.14087,0,20.2,
1573,SBT4050,1,5,4.20006,0.13253,0,20.3,
1573,SBT4050,1,5,4.19993,0.12731,0,20.3,
1573,SBT4050,1,5,4.19997,0.12222,0,20.2,
1573,SBT4050,1,5,4.200184,0.11677,0,20.2,
1573,SBT4050,1,5,4.20012,0.11098,0,20.3,
1573,SBT4050,1,5,4.20024,0.10748,0,20.2,
1573,SBT4050,1,5,4.199862,0.10409,0,20.2,
1573,SBT4050,1,5,4.19444,0,0,20.3,
1573,SBT4050,1,5,4.19067,0,0,20.2,
1573,SBT4050,1,5,4.18853,0,0,20.2,
1573,SBT4050,1,5,4.186136,0,0,20.2,
1573,SBT4050,1,5,4.18434,0,0,20.3,
1573,SBT4050,1,5,4.182586,0,0,20.2,
1573,SBT4050,1,5,4.180876,0,0,20.2,
1573,SBT4050,1,5,4.1796,0,0,20.3,
1573,SBT4050,1,5,4.17804,0,0,20.2,
1573,SBT4050,1,5,4.177026,0,0,20.2,
1573,SBT4050,1,5,4.17576,0,0,20.3,
1573,SBT4050,1,5,4.1748,0,0,20.3,
1573,SBT4050,1,5,4.17345,0,0,20.2,
1573,SBT4050,1,5,4.17249,0,0,20.3,
1573,SBT4050,1,5,4.17151,0,0,20.3,
1573,SBT4050,1,5,4.1707,0,0,20.3,
1573,SBT4050,1,5,4.16982,0,0,20.3,
1573,SBT4050,1,5,4.16921,0,0,20.3,
1573,SBT4050,1,5,4.168372,0,0,20.3,
1573,SBT4050,1,5,4.16746,0,0,20.2,
1573,SBT4050,1,5,4.166624,0,0,20.3,
1573,SBT4050,1,5,4.16591,0,0,20.3,
1573,SBT4050,1,5,4.165336,0,0,20.3,
1573,SBT4050,1,5,4.16497,0,0,20.3,
1573,SBT4050,1,5,4.164,0,0,20.3,
1573,SBT4050,1,5,4.16344,0,0,20.3,
1573,SBT4050,1,5,4.16289,0,0,20.3,
1573,SBT4050,1,5,4.16244,0,0,20.3,
1573,SBT4050,1,5,4.16172,0,0,20.3,
1573,SBT4050,1,5,4.16113,0,0,20.3,
1573,SBT4050,1,5,4.16073,0,0,20.3,
1573,SBT4050,1,5,4.16023,0,0,20.3,
1573,SBT4050,1,5,4.15992,0,0,20.3,
1573,SBT4050,1,5,4.159466,0,0,20.3,
1573,SBT4050,1,5,4.15905,0,0,20.3,
1573,SBT4050,1,5,4.15836,0,0,20.3,
1573,SBT4050,1,5,4.15773,0,0,20.4,
1573,SBT4050,1,5,4.157286,0,0,20.3,
1573,SBT4050,1,5,4.157182,0,0,20.3,
1573,SBT4050,1,5,4.15654,0,0,20.3,
1573,SBT4050,1,5,4.155868,0,0,20.3,
1573,SBT4050,1,5,4.15614,0,0,20.3,
1573,SBT4050,1,5,4.15555,0,0,20.3,
1573,SBT4050,1,5,4.1551,0,0,20.3,
1573,SBT4050,1,5,4.15476,0,0,20.3,
1573,SBT4050,1,5,4.154366,0,0,20.3,
1573,SBT4050,1,5,4.15374,0,0,20.3,
1573,SBT4050,1,5,4.15334,0,0,20.3,
1573,SBT4050,1,5,4.15345,0,0,20.3,
1573,SBT4050,1,5,4.15304,0,0,20.3,
1573,SBT4050,1,5,3.72842,-9.999,54.712,20.6,
1573,SBT4050,1,5,3.5819,-10.001,254.703,23.4,
1573,SBT4050,1,5,3.50615,-10,454.694,25.4,
1573,SBT4050,1,5,3.43942,-9.998,654.682,26.9,
1573,SBT4050,1,5,3.37774,-10.001,854.672,27.8,
1573,SBT4050,1,5,3.31938,-10.001,1054.662,28.4,
1573,SBT4050,1,5,3.25808,-9.998,1254.651,28.8,
1573,SBT4050,1,5,3.18584,-9.999,1454.639,29,
1573,SBT4050,1,5,3.09168,-9.999,1654.628,29.7,
1573,SBT4050,1,5,2.95771,-9.998,1854.618,30.7,
1573,SBT4050,1,5,2.685527,-9.999,2054.607,32.3,
1573,SBT4050,1,5,3.11752,0,2124.109,31.2,
1573,SBT4050,1,5,3.14557,0,2124.109,27.5,
1573,SBT4050,1,5,3.156349,0,2124.109,25.1,
1573,SBT4050,1,5,3.16282,0,2124.109,23.3,
1573,SBT4050,1,5,3.16748,0,2124.109,22.3,
1573,SBT4050,1,5,3.170613,0,2124.109,21.6,
1573,SBT4050,1,5,3.173384,0,2124.109,21.2,
1573,SBT4050,1,5,3.17566,0,2124.109,20.8,
1573,SBT4050,1,5,3.17759,0,2124.109,20.7,
1573,SBT4050,1,5,3.179218,0,2124.109,20.6,
1573,SBT4050,1,5,3.18077,0,2124.109,20.5,
1573,SBT4050,1,5,3.18231,0,2124.109,20.4,
1573,SBT4050,1,5,3.4331,3.9999,2124.109,20.3,
1573,SBT4050,1,5,3.62162,4.0002,2124.109,20.6,
1573,SBT4050,1,5,3.65528,3.9996,2124.109,21.2,
1573,SBT4050,1,5,3.68505,4.0007,2124.109,21.5,
1573,SBT4050,1,5,3.71381,4.0001,2124.109,21.8,
1573,SBT4050,1,5,3.741954,3.9995,2124.109,21.9,
1573,SBT4050,1,5,3.766412,3.9999,2124.109,21.9,
1573,SBT4050,1,5,3.78739,4,2124.109,22,
1573,SBT4050,1,5,3.81073,3.9996,2124.109,22.1,
1573,SBT4050,1,5,3.83789,3.9996,2124.109,22.2,
1573,SBT4050,1,5,3.866486,3.9995,2124.109,22.2,
1573,SBT4050,1,5,3.89674,4.0001,2124.109,22.4,
1573,SBT4050,1,5,3.928266,3.9995,2124.109,22.4,
1573,SBT4050,1,5,3.9613,3.9998,2124.109,22.5,
1573,SBT4050,1,5,3.994706,4.0001,2124.109,22.6,
1573,SBT4050,1,5,4.0285,3.9995,2124.109,22.6,
1573,SBT4050,1,5,4.06273,4.0004,2124.109,22.7,
1573,SBT4050,1,5,4.09646,4.0004,2124.109,22.7,
1573,SBT4050,1,5,4.13249,3.9995,2124.109,22.8,
1573,SBT4050,1,5,4.17183,4.0003,2124.109,22.9,
1573,SBT4050,1,5,4.20017,3.6448,2124.109,22.9,
1573,SBT4050,1,5,4.20007,2.9156,2124.109,22.8,
1573,SBT4050,1,5,4.20005,2.3901,2124.109,22.5,
1573,SBT4050,1,5,4.2001,2.0032,2124.109,22.1,
1573,SBT4050,1,5,4.2002,1.7076,2124.109,21.8,
1573,SBT4050,1,5,4.199966,1.4742,2124.109,21.5,
1573,SBT4050,1,5,4.19999,1.2802,2124.109,21.3,
1573,SBT4050,1,5,4.20017,1.1261,2124.109,21.1,
1573,SBT4050,1,5,4.20017,0.9906,2124.109,20.9,
1573,SBT4050,1,5,4.199954,0.88,2124.109,20.8,
1573,SBT4050,1,5,4.20024,0.7867,2124.109,20.7,
1573,SBT4050,1,5,4.199978,0.7055,2124.109,20.7,
1573,SBT4050,1,5,4.20018,0.6353,2124.109,20.6,
1573,SBT4050,1,5,4.20005,0.5765,2124.109,20.6,
1573,SBT4050,1,5,4.20003,0.5235,2124.109,20.5,
1573,SBT4050,1,5,4.20016,0.4768,2124.109,20.4,
1573,SBT4050,1,5,4.19991,0.43564,2124.109,20.5,
1573,SBT4050,1,5,4.20009,0.40203,2124.109,20.4,
1573,SBT4050,1,5,4.20012,0.36979,2124.109,20.4,
1573,SBT4050,1,5,4.19982,0.34109,2124.109,20.4,
1573,SBT4050,1,5,4.19981,0.317,2124.109,20.3,
1573,SBT4050,1,5,4.20009,0.29347,2124.109,20.3,
1573,SBT4050,1,5,4.20022,0.27327,2124.109,20.3,
1573,SBT4050,1,5,4.19979,0.25552,2124.109,20.2,
1573,SBT4050,1,5,4.20011,0.23785,2124.109,20.3,
1573,SBT4050,1,5,4.199978,0.22485,2124.109,20.3,
1573,SBT4050,1,5,4.20005,0.21126,2124.109,20.2,
1573,SBT4050,1,5,4.20012,0.19864,2124.109,20.2,
1573,SBT4050,1,5,4.19993,0.18706,2124.109,20.2,
1573,SBT4050,1,5,4.2001,0.17706,2124.109,20.2,
1573,SBT4050,1,5,4.20009,0.167,2124.109,20.2,
1573,SBT4050,1,5,4.20016,0.15806,2124.109,20.2,
1573,SBT4050,1,5,4.199942,0.15002,2124.109,20.2,
1573,SBT4050,1,5,4.19991,0.14342,2124.109,20.2,
1573,SBT4050,1,5,4.20018,0.13627,2124.109,20.2,
1573,SBT4050,1,5,4.2001,0.12842,2124.109,20.2,
1573,SBT4050,1,5,4.2001,0.12339,2124.109,20.2,
1573,SBT4050,1,5,4.20005,0.11838,2124.109,20.2,
1573,SBT4050,1,5,4.20007,0.11396,2124.109,20.3,
1573,SBT4050,1,5,4.19988,0.10856,2124.109,20.2,
1573,SBT4050,1,5,4.20007,0.10458,2124.109,20.2,
1573,SBT4050,1,5,4.20001,0.10083,2124.109,20.2,
1573,SBT4050,1,5,4.19233,0,2124.109,20.2,
1573,SBT4050,1,5,4.189284,0,2124.109,20.2,
1573,SBT4050,1,5,4.18691,0,2124.109,20.3,
1573,SBT4050,1,5,4.18519,0,2124.109,20.2,
1573,SBT4050,1,5,4.18316,0,2124.109,20.2,
1573,SBT4050,1,5,4.18144,0,2124.109,20.2,
1573,SBT4050,1,5,4.18029,0,2124.109,20.2,
1573,SBT4050,1,5,4.17868,0,2124.109,20.3,
1573,SBT4050,1,5,4.17757,0,2124.109,20.2,
1573,SBT4050,1,5,4.17642,0,2124.109,20.2,
1573,SBT4050,1,5,4.17537,0,2124.109,20.3,
1573,SBT4050,1,5,4.17425,0,2124.109,20.3,
1573,SBT4050,1,5,4.173058,0,2124.109,20.3,
1573,SBT4050,1,5,4.17182,0,2124.109,20.3,
1573,SBT4050,1,5,4.17109,0,2124.109,20.3,
1573,SBT4050,1,5,4.1704,0,2124.109,20.3,
1573,SBT4050,1,5,4.1695,0,2124.109,20.2,
1573,SBT4050,1,5,4.16865,0,2124.109,20.3,
1573,SBT4050,1,5,4.16806,0,2124.109,20.3,
1573,SBT4050,1,5,4.1673,0,2124.109,20.3,
1573,SBT4050,1,5,4.16651,0,2124.109,20.3,
1573,SBT4050,1,5,4.16564,0,2124.109,20.3,
1573,SBT4050,1,5,4.165196,0,2124.109,20.3,
1573,SBT4050,1,5,4.16442,0,2124.109,20.2,
1573,SBT4050,1,5,4.16353,0,2124.109,20.3,
1573,SBT4050,1,5,4.163126,0,2124.109,20.3,
1573,SBT4050,1,5,4.16272,0,2124.109,20.3,
1573,SBT4050,1,5,4.16198,0,2124.109,20.3,
1573,SBT4050,1,5,4.1616,0,2124.109,20.3,
1573,SBT4050,1,5,4.16122,0,2124.109,20.3,
1573,SBT4050,1,5,4.16068,0,2124.109,20.3,
1573,SBT4050,1,5,4.16034,0,2124.109,20.3,
1573,SBT4050,1,5,4.159624,0,2124.109,20.4,
1573,SBT4050,1,5,4.15899,0,2124.109,20.3,
1573,SBT4050,1,5,4.15839,0,2124.109,20.4,
1573,SBT4050,1,5,4.158174,0,2124.109,20.3,
1573,SBT4050,1,5,4.15749,0,2124.109,20.3,
1573,SBT4050,1,5,4.15744,0,2124.109,20.3,
1573,SBT4050,1,5,4.15673,0,2124.109,20.3,
1573,SBT4050,1,5,4.1564,0,2124.109,20.3,
1573,SBT4050,1,5,4.15628,0,2124.109,20.3,
1573,SBT4050,1,5,4.15577,0,2124.109,20.3,
1573,SBT4050,1,5,4.15554,0,2124.109,20.3,
1573,SBT4050,1,5,4.15508,0,2124.109,20.3,
1573,SBT4050,1,5,4.154934,0,2124.109,20.3,
1573,SBT4050,1,5,4.1542,0,2124.109,20.3,
1573,SBT4050,1,5,4.15394,0,2124.109,20.3,
1573,SBT4050,1,5,4.15352,0,2124.109,20.3,
1573,SBT4050,1,5,4.15343,0,2124.109,20.4,
1573,SBT4050,1,5,4.15309,0,2124.109,20.3,
1573,SBT4050,1,5,3.44341,-14.999,2370.694,24.3,
1573,SBT4050,1,5,3.35737,-15,2670.681,29.2,
1573,SBT4050,1,5,3.28354,-14.999,2970.67,32.5,
1573,SBT4050,1,5,3.20614,-15,3270.662,34.3,
1573,SBT4050,1,5,3.11404,-14.999,3570.652,35.5,
1573,SBT4050,1,5,2.9849,-15,3870.642,36.6,
1573,SBT4050,1,5,2.67265,-14.998,4170.631,38.6,
1573,SBT4050,1,5,3.151716,0,4238.458,35.8,
1573,SBT4050,1,5,3.17266,0,4238.458,30.6,
1573,SBT4050,1,5,3.18222,0,4238.458,27.1,
1573,SBT4050,1,5,3.18792,0,4238.458,24.8,
1573,SBT4050,1,5,3.19225,0,4238.458,23.3,
1573,SBT4050,1,5,3.19537,0,4238.458,22.3,
1573,SBT4050,1,5,3.19766,0,4238.458,21.6,
1573,SBT4050,1,5,3.19975,0,4238.458,21.2,
1573,SBT4050,1,5,3.20139,0,4238.458,20.9,
1573,SBT4050,1,5,3.20263,0,4238.458,20.7,
1573,SBT4050,1,5,3.203991,0,4238.458,20.6,
1573,SBT4050,1,5,3.20495,0,4238.458,20.5,
1573,SBT4050,1,5,3.49387,4.0001,4238.458,20.4,
1573,SBT4050,1,5,3.63413,3.9993,4238.458,20.8,
1573,SBT4050,1,5,3.66355,4,4238.458,21.3,
1573,SBT4050,1,5,3.69304,3.9999,4238.458,21.7,
1573,SBT4050,1,5,3.72089,3.9999,4238.458,21.9,
1573,SBT4050,1,5,3.74911,4.0001,4238.458,22,
1573,SBT4050,1,5,3.77242,4,4238.458,22.1,
1573,SBT4050,1,5,3.79333,3.9998,4238.458,22.1,
1573,SBT4050,1,5,3.81811,3.9998,4238.458,22.2,
1573,SBT4050,1,5,3.84565,3.9997,4238.458,22.3,
1573,SBT4050,1,5,3.87466,4,4238.458,22.4,
1573,SBT4050,1,5,3.90569,3.9999,4238.458,22.5,
1573,SBT4050,1,5,3.93725,3.9998,4238.458,22.6,
1573,SBT4050,1,5,3.9701,3.9998,4238.458,22.7,
1573,SBT4050,1,5,4.00398,3.9998,4238.458,22.8,
1573,SBT4050,1,5,4.03737,4,4238.458,22.8,
1573,SBT4050,1,5,4.07066,3.9999,4238.458,22.8,
1573,SBT4050,1,5,4.10519,4.0001,4238.458,22.9,
1573,SBT4050,1,5,4.14161,4.0003,4238.458,23,
1573,SBT4050,1,5,4.18121,4.0002,4238.458,23,
1573,SBT4050,1,5,4.20005,3.4502,4238.458,23,
1573,SBT4050,1,5,4.20018,2.7792,4238.458,22.8,
1573,SBT4050,1,5,4.19986,2.2918,4238.458,22.5,
1573,SBT4050,1,5,4.200002,1.9284,4238.458,22.2,
1573,SBT4050,1,5,4.20017,1.6452,4238.458,21.9,
1573,SBT4050,1,5,4.20025,1.4235,4238.458,21.6,
1573,SBT4050,1,5,4.2001,1.2387,4238.458,21.4,
1573,SBT4050,1,5,4.20014,1.088,4238.458,21.2,
1573,SBT4050,1,5,4.20034,0.9627,4238.458,21.1,
1573,SBT4050,1,5,4.200312,0.8555,4238.458,21,
1573,SBT4050,1,5,4.20018,0.7648,4238.458,20.9,
1573,SBT4050,1,5,4.200276,0.6875,4238.458,20.8,
1573,SBT4050,1,5,4.20009,0.6174,4238.458,20.7,
1573,SBT4050,1,5,4.200002,0.5624,4238.458,20.7,
1573,SBT4050,1,5,4.20007,0.5108,4238.458,20.6,
1573,SBT4050,1,5,4.199966,0.46586,4238.458,20.6,
1573,SBT4050,1,5,4.20004,0.42894,4238.458,20.6,
1573,SBT4050,1,5,4.199966,0.39355,4238.458,20.5,
1573,SBT4050,1,5,4.20009,0.36232,4238.458,20.5,
1573,SBT4050,1,5,4.19987,0.33576,4238.458,20.5,
1573,SBT4050,1,5,4.20016,0.31069,4238.458,20.5,
1573,SBT4050,1,5,4.20001,0.28854,4238.458,20.4,
1573,SBT4050,1,5,4.19993,0.26817,4238.458,20.4,
1573,SBT4050,1,5,4.199978,0.25175,4238.458,20.4,
1573,SBT4050,1,5,4.2002,0.23633,4238.458,20.4,
1573,SBT4050,1,5,4.199966,0.22077,4238.458,20.4,
1573,SBT4050,1,5,4.20017,0.20695,4238.458,20.4,
1573,SBT4050,1,5,4.20007,0.19592,4238.458,20.4,
1573,SBT4050,1,5,4.19981,0.18599,4238.458,20.4,
1573,SBT4050,1,5,4.19985,0.1729,4238.458,20.4,
1573,SBT4050,1,5,4.19987,0.1663,4238.458,20.4,
1573,SBT4050,1,5,4.19975,0.15621,4238.458,20.3,
1573,SBT4050,1,5,4.20032,0.14816,4238.458,20.3,
1573,SBT4050,1,5,4.199954,0.14165,4238.458,20.3,
1573,SBT4050,1,5,4.20007,0.13438,4238.458,20.4,
1573,SBT4050,1,5,4.20018,0.12897,4238.458,20.3,
1573,SBT4050,1,5,4.20005,0.12371,4238.458,20.4,
1573,SBT4050,1,5,4.19982,0.11771,4238.458,20.4,
1573,SBT4050,1,5,4.19994,0.11274,4238.458,20.3,
1573,SBT4050,1,5,4.20011,0.10804,4238.458,20.4,
1573,SBT4050,1,5,4.20009,0.10448,4238.458,20.3,
1573,SBT4050,1,5,4.20023,0.09998,4238.458,,
1573,SBT4050,1,5,4.191894,0,4238.458,20.3,
1573,SBT4050,1,5,4.18947,0,4238.458,20.3,
1573,SBT4050,1,5,4.18712,0,4238.458,20.4,
1573,SBT4050,1,5,4.18477,0,4238.458,20.4,
1573,SBT4050,1,5,4.1831,0,4238.458,20.3,
1573,SBT4050,1,5,4.18177,0,4238.458,20.3,
1573,SBT4050,1,5,4.18008,0,4238.458,20.4,
1573,SBT4050,1,5,4.17889,0,4238.458,20.2,
1573,SBT4050,1,5,4.17757,0,4238.458,20.3,
1573,SBT4050,1,5,4.17614,0,4238.458,20.3,
1573,SBT4050,1,5,4.17547,0,4238.458,20.3,
1573,SBT4050,1,5,4.17381,0,4238.458,20.3,
1573,SBT4050,1,5,4.17322,0,4238.458,20.3,
1573,SBT4050,1,5,4.17218,0,4238.458,20.3,
1573,SBT4050,1,5,4.17128,0,4238.458,20.3,
1573,SBT4050,1,5,4.170372,0,4238.458,20.3,
1573,SBT4050,1,5,4.16963,0,4238.458,20.3,
1573,SBT4050,1,5,4.16886,0,4238.458,20.3,
1573,SBT4050,1,5,4.168,0,4238.458,20.3,
1573,SBT4050,1,5,4.16694,0,4238.458,20.3,
1573,SBT4050,1,5,4.16667,0,4238.458,20.3,
1573,SBT4050,1,5,4.16575,0,4238.458,20.3,
1573,SBT4050,1,5,4.16518,0,4238.458,20.3,
1573,SBT4050,1,5,4.16429,0,4238.458,20.3,
1573,SBT4050,1,5,4.16407,0,4238.458,20.2,
1573,SBT4050,1,5,4.16312,0,4238.458,20.3,
1573,SBT4050,1,5,4.16283,0,4238.458,20.3,
1573,SBT4050,1,5,4.16217,0,4238.458,20.2,
1573,SBT4050,1,5,4.16194,0,4238.458,20.3,
1573,SBT4050,1,5,4.161218,0,4238.458,20.3,
1573,SBT4050,1,5,4.16059,0,4238.458,20.3,
1573,SBT4050,1,5,4.16028,0,4238.458,20.2,
1573,SBT4050,1,5,4.15948,0,4238.458,20.3,
1573,SBT4050,1,5,4.15921,0,4238.458,20.3,
1573,SBT4050,1,5,4.15878,0,4238.458,20.3,
1573,SBT4050,1,5,4.1584,0,4238.458,20.3,
1573,SBT4050,1,5,4.15785,0,4238.458,20.3,
1573,SBT4050,1,5,4.157276,0,4238.458,20.3,
1573,SBT4050,1,5,4.156968,0,4238.458,20.3,
1573,SBT4050,1,5,4.15683,0,4238.458,20.3,
1573,SBT4050,1,5,4.15634,0,4238.458,20.3,
1573,SBT4050,1,5,4.15571,0,4238.458,20.3,
1573,SBT4050,1,5,4.15548,0,4238.458,20.3,
1573,SBT4050,1,5,4.15547,0,4238.458,20.3,
1573,SBT4050,1,5,4.154712,0,4238.458,20.3,
1573,SBT4050,1,5,4.15446,0,4238.458,20.3,
1573,SBT4050,1,5,4.15414,0,4238.458,20.4,
1573,SBT4050,1,5,4.153876,0,4238.458,20.3,
1573,SBT4050,1,5,4.153506,0,4238.458,20.3,
1573,SBT4050,1,5,4.15323,0,4238.458,20.3,
1573,SBT4050,1,5,3.51734,-12.499,4481.862,23.8,
1573,SBT4050,1,5,3.43182,-12.5,4731.855,27.1,
1573,SBT4050,1,5,3.35953,-12.498,4981.844,29.5,
1573,SBT4050,1,5,3.29052,-12.501,5231.833,30.9,
1573,SBT4050,1,5,3.21817,-12.499,5481.82,31.7,
1573,SBT4050,1,5,3.131,-12.498,5731.81,32.4,
1573,SBT4050,1,5,3.01011,-12.499,5981.799,33.4,
1573,SBT4050,1,5,2.77344,-12.499,6231.788,35.1,
1573,SBT4050,1,5,3.124961,0,6351.832,34.8,
1573,SBT4050,1,5,3.15748,0,6351.832,29.9,
1573,SBT4050,1,5,3.16858,0,6351.832,26.7,
1573,SBT4050,1,5,3.17543,0,6351.832,24.5,
1573,SBT4050,1,5,3.180424,0,6351.832,23,
1573,SBT4050,1,5,3.18385,0,6351.832,22.1,
1573,SBT4050,1,5,3.18666,0,6351.832,21.5,
1573,SBT4050,1,5,3.18893,0,6351.832,21.2,
1573,SBT4050,1,5,3.19078,0,6351.832,20.9,
1573,SBT4050,1,5,3.19229,0,6351.832,20.8,
1573,SBT4050,1,5,3.19383,0,6351.832,20.6,
1573,SBT4050,1,5,3.19534,0,6351.832,20.5,
1573,SBT4050,1,5,3.19669,-9.9E-05,6351.832,,
1573,SBT4050,1,5,3.61564,4.0004,6351.832,20.7,
1573,SBT4050,1,5,3.65415,3.9999,6351.832,21.3,
1573,SBT4050,1,5,3.683884,3.9998,6351.832,21.6,
1573,SBT4050,1,5,3.7125,4.0001,6351.832,21.9,
1573,SBT4050,1,5,3.74092,4,6351.832,22,
1573,SBT4050,1,5,3.76597,3.9998,6351.832,22.1,
1573,SBT4050,1,5,3.78677,4.0004,6351.832,22.1,
1573,SBT4050,1,5,3.81025,3.9998,6351.832,22.2,
1573,SBT4050,1,5,3.8373,4.0006,6351.832,22.3,
1573,SBT4050,1,5,3.86673,3.9998,6351.832,22.3,
1573,SBT4050,1,5,3.896562,4.0001,6351.832,22.4,
1573,SBT4050,1,5,3.928442,3.9998,6351.832,22.6,
1573,SBT4050,1,5,3.96127,4.0001,6351.832,22.7,
1573,SBT4050,1,5,3.99448,4.0001,6351.832,22.7,
1573,SBT4050,1,5,4.02879,4,6351.832,22.8,
1573,SBT4050,1,5,4.06215,3.999,6351.832,22.8,
1573,SBT4050,1,5,4.09636,3.9998,6351.832,22.9,
1573,SBT4050,1,5,4.13177,4,6351.832,23,
1573,SBT4050,1,5,4.17129,4,6351.832,23,
1573,SBT4050,1,5,4.200464,3.6559,6351.832,23.1,
1573,SBT4050,1,5,4.2002,2.9177,6351.832,23,
1573,SBT4050,1,5,4.2003,2.3939,6351.832,22.7,
1573,SBT4050,1,5,4.20001,2.0048,6351.832,22.3,
1573,SBT4050,1,5,4.20021,1.7046,6351.832,21.9,
1573,SBT4050,1,5,4.200106,1.4649,6351.832,21.7,
1573,SBT4050,1,5,4.20013,1.274,6351.832,21.5,
1573,SBT4050,1,5,4.20024,1.1176,6351.832,21.3,
1573,SBT4050,1,5,4.2,0.9863,6351.832,21.1,
1573,SBT4050,1,5,4.20013,0.8753,6351.832,21,
1573,SBT4050,1,5,4.200142,0.7818,6351.832,20.9,
1573,SBT4050,1,5,4.19999,0.7019,6351.832,20.8,
1573,SBT4050,1,5,4.2,0.6326,6351.832,20.8,
1573,SBT4050,1,5,4.20019,0.574,6351.832,20.7,
1573,SBT4050,1,5,4.20023,0.5206,6351.832,20.6,
1573,SBT4050,1,5,4.20006,0.4741,6351.832,20.6,
1573,SBT4050,1,5,4.19989,0.43386,6351.832,20.6,
1573,SBT4050,1,5,4.20003,0.39968,6351.832,20.6,
1573,SBT4050,1,5,4.20002,0.36838,6351.832,20.5,
1573,SBT4050,1,5,4.20009,0.3404,6351.832,20.5,
1573,SBT4050,1,5,4.19987,0.31501,6351.832,20.4,
1573,SBT4050,1,5,4.200106,0.2933,6351.832,20.5,
1573,SBT4050,1,5,4.19995,0.27241,6351.832,20.4,
1573,SBT4050,1,5,4.1999,0.25445,6351.832,20.4,
1573,SBT4050,1,5,4.20006,0.23853,6351.832,20.4,
1573,SBT4050,1,5,4.20013,0.22336,6351.832,20.4,
1573,SBT4050,1,5,4.19998,0.21049,6351.832,20.4,
1573,SBT4050,1,5,4.200118,0.19685,6351.832,20.4,
1573,SBT4050,1,5,4.20028,0.18685,6351.832,20.4,
1573,SBT4050,1,5,4.20017,0.17722,6351.832,20.4,
1573,SBT4050,1,5,4.19993,0.16696,6351.832,20.3,
1573,SBT4050,1,5,4.19999,0.15767,6351.832,20.4,
1573,SBT4050,1,5,4.19995,0.15179,6351.832,20.4,
1573,SBT4050,1,5,4.20009,0.14372,6351.832,20.4,
1573,SBT4050,1,5,4.20008,0.13692,6351.832,20.4,
1573,SBT4050,1,5,4.20009,0.13022,6351.832,20.4,
1573,SBT4050,1,5,4.19972,0.12519,6351.832,20.3,
1573,SBT4050,1,5,4.20003,0.11849,6351.832,20.4,
1573,SBT4050,1,5,4.200118,0.11372,6351.832,20.4,
1573,SBT4050,1,5,4.19993,0.10969,6351.832,20.4,
1573,SBT4050,1,5,4.20003,0.10411,6351.832,20.4,
1573,SBT4050,1,5,4.20031,0.10012,6351.832,20.4,
1573,SBT4050,1,5,4.19168,0,6351.832,20.4,
1573,SBT4050,1,5,4.188766,0,6351.832,20.4,
1573,SBT4050,1,5,4.186496,0,6351.832,20.4,
1573,SBT4050,1,5,4.184784,0,6351.832,20.4,
1573,SBT4050,1,5,4.18285,0,6351.832,20.4,
1573,SBT4050,1,5,4.18138,0,6351.832,20.4,
1573,SBT4050,1,5,4.17995,0,6351.832,20.4,
1573,SBT4050,1,5,4.17817,0,6351.832,20.4,
1573,SBT4050,1,5,4.17729,0,6351.832,20.4,
1573,SBT4050,1,5,4.17614,0,6351.832,20.4,
1573,SBT4050,1,5,4.17494,0,6351.832,20.4,
1573,SBT4050,1,5,4.17377,0,6351.832,20.3,
1573,SBT4050,1,5,4.1726,0,6351.832,20.4,
1573,SBT4050,1,5,4.171912,0,6351.832,20.4,
1573,SBT4050,1,5,4.17066,0,6351.832,20.4,
1573,SBT4050,1,5,4.17021,0,6351.832,20.4,
1573,SBT4050,1,5,4.169218,0,6351.832,20.5,
1573,SBT4050,1,5,4.16864,0,6351.832,20.4,
1573,SBT4050,1,5,4.1675,0,6351.832,20.4,
1573,SBT4050,1,5,4.16661,0,6351.832,20.4,
1573,SBT4050,1,5,4.16591,0,6351.832,20.4,
1573,SBT4050,1,5,4.16552,0,6351.832,20.4,
1573,SBT4050,1,5,4.16484,0,6351.832,20.5,
1573,SBT4050,1,5,4.16396,0,6351.832,20.4,
1573,SBT4050,1,5,4.1633,0,6351.832,20.4,
1573,SBT4050,1,5,4.16286,0,6351.832,20.4,
1573,SBT4050,1,5,4.1624,0,6351.832,20.4,
1573,SBT4050,1,5,4.16161,0,6351.832,20.5,
1573,SBT4050,1,5,4.16106,0,6351.832,20.5,
1573,SBT4050,1,5,4.1607,0,6351.832,20.5,
1573,SBT4050,1,5,4.160226,0,6351.832,20.4,
1573,SBT4050,1,5,4.15981,0,6351.832,20.4,
1573,SBT4050,1,5,4.15938,0,6351.832,20.5,
1573,SBT4050,1,5,4.15863,0,6351.832,20.5,
1573,SBT4050,1,5,4.15841,0,6351.832,20.4,
1573,SBT4050,1,5,4.15785,0,6351.832,20.4,
1573,SBT4050,1,5,4.15741,0,6351.832,20.4,
1573,SBT4050,1,5,4.157036,0,6351.832,20.4,
1573,SBT4050,1,5,4.1567,0,6351.832,20.4,
1573,SBT4050,1,5,4.15619,0,6351.832,20.4,
1573,SBT4050,1,5,4.15546,0,6351.832,20.5,
1573,SBT4050,1,5,4.15533,0,6351.832,20.5,
1573,SBT4050,1,5,4.155326,0,6351.832,20.5,
1573,SBT4050,1,5,4.15485,0,6351.832,20.4,
1573,SBT4050,1,5,4.15432,0,6351.832,20.4,
1573,SBT4050,1,5,4.15418,0,6351.832,20.4,
1573,SBT4050,1,5,4.15346,0,6351.832,20.4,
1573,SBT4050,1,5,4.1535,0,6351.832,20.4,
1573,SBT4050,1,5,4.15328,0,6351.832,20.4,
1573,SBT4050,1,5,4.15288,0,6351.832,20.4,
1573,SBT4050,1,5,3.72066,-7.499,6497.168,21.7,
1573,SBT4050,1,5,3.64038,-7.501,6647.157,23,
1573,SBT4050,1,5,3.5813,-7.499,6797.146,24.1,
1573,SBT4050,1,5,3.52639,-7.499,6947.136,24.8,
1573,SBT4050,1,5,3.473998,-7.5,7097.125,25.3,
1573,SBT4050,1,5,3.42406,-7.499,7247.115,25.7,
1573,SBT4050,1,5,3.37799,-7.499,7397.105,25.8,
1573,SBT4050,1,5,3.33168,-7.501,7547.094,25.9,
1573,SBT4050,1,5,3.28113,-7.501,7697.083,26,
1573,SBT4050,1,5,3.21957,-7.499,7847.073,26.3,
1573,SBT4050,1,5,3.14234,-7.499,7997.064,26.6,
1573,SBT4050,1,5,3.04116,-7.501,8147.054,27.3,
1573,SBT4050,1,5,2.88046,-7.5,8297.045,28.3,
1573,SBT4050,1,5,2.57323,-7.5,8447.035,29.6,
1573,SBT4050,1,5,3.10593,0,8469.053,27.8,
1573,SBT4050,1,5,3.13061,0,8469.053,25.3,
1573,SBT4050,1,5,3.14159,0,8469.053,23.6,
1573,SBT4050,1,5,3.14843,0,8469.053,22.5,
1573,SBT4050,1,5,3.54325,3.9997,8469.053,21.9,
1573,SBT4050,1,5,3.63019,3.9999,8469.053,21.9,
1573,SBT4050,1,5,3.66173,3.9998,8469.053,22,
1573,SBT4050,1,5,3.69347,4.0001,8469.053,22,
1573,SBT4050,1,5,3.72362,3.9996,8469.053,22.1,
1573,SBT4050,1,5,3.75228,3.9998,8469.053,22.2,
1573,SBT4050,1,5,3.77503,3.9995,8469.053,22.2,
1573,SBT4050,1,5,3.79684,3.9998,8469.053,22.1,
1573,SBT4050,1,5,3.82283,3.9996,8469.053,22.2,
1573,SBT4050,1,5,3.85113,3.9993,8469.053,22.2,
1573,SBT4050,1,5,3.88091,3.9999,8469.053,22.4,
1573,SBT4050,1,5,3.91203,4.0001,8469.053,22.5,
1573,SBT4050,1,5,3.94465,3.9997,8469.053,22.5,
1573,SBT4050,1,5,3.9786,3.9998,8469.053,22.6,
1573,SBT4050,1,5,4.01275,3.9997,8469.053,22.7,
1573,SBT4050,1,5,4.04665,4.0003,8469.053,22.8,
1573,SBT4050,1,5,4.08097,3.9994,8469.053,22.8,
1573,SBT4050,1,5,4.116158,4,8469.053,22.9,
1573,SBT4050,1,5,4.154216,4.0001,8469.053,22.9,
1573,SBT4050,1,5,4.19571,3.9997,8469.053,22.9,
1573,SBT4050,1,5,4.20018,3.1915,8469.053,22.9,
1573,SBT4050,1,5,4.2001,2.5889,8469.053,22.7,
1573,SBT4050,1,5,4.20006,2.1474,8469.053,22.4,
1573,SBT4050,1,5,4.20015,1.8124,8469.053,22,
1573,SBT4050,1,5,4.200218,1.5543,8469.053,21.8,
1573,SBT4050,1,5,4.20011,1.3464,8469.053,21.5,
1573,SBT4050,1,5,4.200218,1.1739,8469.053,21.3,
1573,SBT4050,1,5,4.200218,1.0354,8469.053,21.1,
1573,SBT4050,1,5,4.20019,0.9162,8469.053,21,
1573,SBT4050,1,5,4.199956,0.8169,8469.053,20.9,
1573,SBT4050,1,5,4.200218,0.7319,8469.053,20.8,
1573,SBT4050,1,5,4.2001,0.6571,8469.053,20.8,
1573,SBT4050,1,5,4.19999,0.5944,8469.053,20.7,
1573,SBT4050,1,5,4.20019,0.5398,8469.053,20.7,
1573,SBT4050,1,5,4.20002,0.4899,8469.053,20.6,
1573,SBT4050,1,5,4.2,0.44998,8469.053,20.6,
1573,SBT4050,1,5,4.20021,0.41088,8469.053,20.6,
1573,SBT4050,1,5,4.20005,0.38214,8469.053,20.5,
1573,SBT4050,1,5,4.20008,0.35012,8469.053,20.5,
1573,SBT4050,1,5,4.199932,0.3229,8469.053,20.5,
1573,SBT4050,1,5,4.19991,0.3011,8469.053,20.5,
1573,SBT4050,1,5,4.20012,0.28004,8469.053,20.5,
1573,SBT4050,1,5,4.19987,0.26113,8469.053,20.5,
1573,SBT4050,1,5,4.19992,0.24576,8469.053,20.5,
1573,SBT4050,1,5,4.20015,0.22881,8469.053,20.5,
1573,SBT4050,1,5,4.20009,0.21469,8469.053,20.5,
1573,SBT4050,1,5,4.19999,0.20315,8469.053,20.5,
1573,SBT4050,1,5,4.200254,0.19136,8469.053,20.5,
1573,SBT4050,1,5,4.200218,0.18077,8469.053,20.5,
1573,SBT4050,1,5,4.20009,0.17142,8469.053,20.5,
1573,SBT4050,1,5,4.200242,0.16227,8469.053,20.5,
1573,SBT4050,1,5,4.19985,0.15325,8469.053,20.4,
1573,SBT4050,1,5,4.200254,0.14616,8469.053,20.5,
1573,SBT4050,1,5,4.20004,0.13857,8469.053,20.5,
1573,SBT4050,1,5,4.19991,0.13231,8469.053,20.5,
1573,SBT4050,1,5,4.20002,0.12556,8469.053,20.5,
1573,SBT4050,1,5,4.20011,0.12025,8469.053,20.5,
1573,SBT4050,1,5,4.20006,0.11574,8469.053,20.5,
1573,SBT4050,1,5,4.20008,0.11124,8469.053,20.4,
1573,SBT4050,1,5,4.20013,0.10648,8469.053,20.5,
1573,SBT4050,1,5,4.200218,0.10239,8469.053,20.5,
1573,SBT4050,1,5,4.19326,0,8469.053,20.5,
1573,SBT4050,1,5,4.19037,0,8469.053,20.4,
1573,SBT4050,1,5,4.18778,0,8469.053,20.4,
1573,SBT4050,1,5,4.18565,0,8469.053,20.4,
1573,SBT4050,1,5,4.183714,0,8469.053,20.4,
1573,SBT4050,1,5,4.18202,0,8469.053,20.4,
1573,SBT4050,1,5,4.18069,0,8469.053,20.5,
1573,SBT4050,1,5,4.179114,0,8469.053,20.4,
1573,SBT4050,1,5,4.17791,0,8469.053,20.4,
1573,SBT4050,1,5,4.176514,0,8469.053,20.5,
1573,SBT4050,1,5,4.17536,0,8469.053,20.4,
1573,SBT4050,1,5,4.17461,0,8469.053,20.5,
1573,SBT4050,1,5,4.17317,0,8469.053,20.5,
1573,SBT4050,1,5,4.17231,0,8469.053,20.5,
1573,SBT4050,1,5,4.17128,0,8469.053,20.5,
1573,SBT4050,1,5,4.17048,0,8469.053,20.5,
1573,SBT4050,1,5,4.16995,0,8469.053,20.5,
1573,SBT4050,1,5,4.16875,0,8469.053,20.4,
1573,SBT4050,1,5,4.167986,0,8469.053,20.5,
1573,SBT4050,1,5,4.16717,0,8469.053,20.5,
1573,SBT4050,1,5,4.16665,0,8469.053,20.4,
1573,SBT4050,1,5,4.16596,0,8469.053,20.3,
1573,SBT4050,1,5,4.16519,0,8469.053,20.3,
1573,SBT4050,1,5,4.16443,0,8469.053,20.4,
1573,SBT4050,1,5,4.16373,0,8469.053,20.3,
1573,SBT4050,1,5,4.16351,0,8469.053,20.3,
1573,SBT4050,1,5,4.16297,0,8469.053,20.3,
1573,SBT4050,1,5,4.16198,0,8469.053,20.3,
1573,SBT4050,1,5,4.16164,0,8469.053,20.3,
1573,SBT4050,1,5,4.16125,0,8469.053,20.2,
1573,SBT4050,1,5,4.16065,0,8469.053,20.3,
1573,SBT4050,1,5,4.16036,0,8469.053,20.3,
1573,SBT4050,1,5,4.15954,0,8469.053,20.2,
1573,SBT4050,1,5,4.15924,0,8469.053,20.3,
1573,SBT4050,1,5,4.15875,0,8469.053,20.3,
1573,SBT4050,1,5,4.158346,0,8469.053,20.3,
1573,SBT4050,1,5,4.15784,0,8469.053,20.3,
1573,SBT4050,1,5,4.15748,0,8469.053,20.3,
1573,SBT4050,1,5,4.15705,0,8469.053,20.3,
1573,SBT4050,1,5,4.15663,0,8469.053,20.3,
1573,SBT4050,1,5,4.15625,0,8469.053,20.4,
1573,SBT4050,1,5,4.155762,0,8469.053,20.4,
1573,SBT4050,1,5,4.15559,0,8469.053,20.4,
1573,SBT4050,1,5,4.15485,0,8469.053,20.4,
1573,SBT4050,1,5,4.15484,0,8469.053,20.4,
1573,SBT4050,1,5,4.15454,0,8469.053,20.4,
1573,SBT4050,1,5,4.15402,0,8469.053,20.4,
1573,SBT4050,1,5,4.15379,0,8469.053,20.4,
1573,SBT4050,1,5,4.15346,0,8469.053,20.4,
1573,SBT4050,1,5,4.152872,0,8469.053,20.4,
1573,SBT4050,1,5,3.883222,-4.999,8527.308,20.7,
1573,SBT4050,1,5,3.796652,-4.998,8627.297,21.5,
1573,SBT4050,1,5,3.7407,-5,8727.287,22.1,
1573,SBT4050,1,5,3.69702,-4.999,8827.277,22.5,
1573,SBT4050,1,5,3.65775,-5,8927.267,22.8,
1573,SBT4050,1,5,3.62,-5,9027.256,23.1,
1573,SBT4050,1,5,3.58255,-5,9127.244,23.2,
1573,SBT4050,1,5,3.546484,-4.999,9227.234,23.3,
1573,SBT4050,1,5,3.511172,-5.001,9327.223,23.4,
1573,SBT4050,1,5,3.47757,-4.999,9427.212,23.4,
1573,SBT4050,1,5,3.44557,-4.999,9527.201,23.4,
1573,SBT4050,1,5,3.41467,-5,9627.19,23.5,
1573,SBT4050,1,5,3.38354,-4.999,9727.181,23.5,
1573,SBT4050,1,5,3.35151,-5.001,9827.169,23.4,
1573,SBT4050,1,5,3.31421,-4.999,9927.157,23.6,
1573,SBT4050,1,5,3.27025,-4.999,10027.146,23.7,
1573,SBT4050,1,5,3.21654,-4.999,10127.132,24,
1573,SBT4050,1,5,3.14875,-4.999,10227.12,24.3,
1573,SBT4050,1,5,3.0557,-5.001,10327.108,24.7,
1573,SBT4050,1,5,2.92427,-4.999,10427.1,25.3,
1573,SBT4050,1,5,2.72364,-4.999,10527.089,26.2,
1573,SBT4050,1,5,3.01185,0,10596.234,26.5,
1573,SBT4050,1,5,3.082232,0,10596.234,24.6,
1573,SBT4050,1,5,3.10108,0,10596.234,23.2,
1573,SBT4050,1,5,3.11151,0,10596.234,22.2,
1573,SBT4050,1,5,3.36824,4.0004,10596.234,21.6,
1573,SBT4050,1,5,3.59496,4.0001,10596.234,21.5,
1573,SBT4050,1,5,3.64162,4.0003,10596.234,21.8,
1573,SBT4050,1,5,3.673562,3.9995,10596.234,22,
1573,SBT4050,1,5,3.70429,3.9997,10596.234,22,
1573,SBT4050,1,5,3.73419,4.0004,10596.234,22.1,
1573,SBT4050,1,5,3.76119,4.0003,10596.234,22,
1573,SBT4050,1,5,3.783336,4.0001,10596.234,22,
1573,SBT4050,1,5,3.80678,4.0001,10596.234,22,
1573,SBT4050,1,5,3.83412,4.0001,10596.234,22,
1573,SBT4050,1,5,3.86343,4.0001,10596.234,22,
1573,SBT4050,1,5,3.89387,3.9997,10596.234,22,
1573,SBT4050,1,5,3.925634,4.0003,10596.234,22,
1573,SBT4050,1,5,3.95906,4.0007,10596.234,22.1,
1573,SBT4050,1,5,3.99308,4.0004,10596.234,22.1,
1573,SBT4050,1,5,4.02773,4,10596.234,22.1,
1573,SBT4050,1,5,4.06248,3.9994,10596.234,22.2,
1573,SBT4050,1,5,4.09687,3.9997,10596.234,22.1,
1573,SBT4050,1,5,4.13399,3.9997,10596.234,22,
1573,SBT4050,1,5,4.17357,3.9999,10596.234,22.1,
1573,SBT4050,1,5,4.20031,3.5987,10596.234,22,
1573,SBT4050,1,5,4.19994,2.8793,10596.234,21.9,
1573,SBT4050,1,5,4.20006,2.3587,10596.234,21.5,
1573,SBT4050,1,5,4.20029,1.9714,10596.234,21.1,
1573,SBT4050,1,5,4.20037,1.6756,10596.234,20.7,
1573,SBT4050,1,5,4.19994,1.443,10596.234,20.5,
1573,SBT4050,1,5,4.20018,1.2567,10596.234,20.2,
1573,SBT4050,1,5,4.19998,1.1022,10596.234,20,
1573,SBT4050,1,5,4.20014,0.9761,10596.234,19.8,
1573,SBT4050,1,5,4.200116,0.8664,10596.234,19.7,
1573,SBT4050,1,5,4.20019,0.7769,10596.234,19.5,
1573,SBT4050,1,5,4.19991,0.6981,10596.234,19.4,
1573,SBT4050,1,5,4.20018,0.6306,10596.234,19.4,
1573,SBT4050,1,5,4.20007,0.5739,10596.234,19.3,
1573,SBT4050,1,5,4.20014,0.5227,10596.234,19.3,
1573,SBT4050,1,5,4.20021,0.4791,10596.234,19.3,
1573,SBT4050,1,5,4.20006,0.44129,10596.234,19.3,
1573,SBT4050,1,5,4.20029,0.40583,10596.234,19.3,
1573,SBT4050,1,5,4.20009,0.37506,10596.234,19.3,
1573,SBT4050,1,5,4.200104,0.34684,10596.234,19.3,
1573,SBT4050,1,5,4.20003,0.32316,10596.234,19.3,
1573,SBT4050,1,5,4.19995,0.30126,10596.234,19.3,
1573,SBT4050,1,5,4.20029,0.28176,10596.234,19.4,
1573,SBT4050,1,5,4.20016,0.26431,10596.234,19.3,
1573,SBT4050,1,5,4.20001,0.24893,10596.234,19.4,
1573,SBT4050,1,5,4.20014,0.2323,10596.234,19.4,
1573,SBT4050,1,5,4.200152,0.2173,10596.234,19.5,
1573,SBT4050,1,5,4.19995,0.20633,10596.234,19.4,
1573,SBT4050,1,5,4.20014,0.19516,10596.234,19.4,
1573,SBT4050,1,5,4.20003,0.18445,10596.234,19.4,
1573,SBT4050,1,5,4.200116,0.17659,10596.234,19.5,
1573,SBT4050,1,5,4.1999,0.1669,10596.234,19.4,
1573,SBT4050,1,5,4.20019,0.15856,10596.234,19.5,
1573,SBT4050,1,5,4.20003,0.15198,10596.234,19.5,
1573,SBT4050,1,5,4.20008,0.14415,10596.234,19.5,
1573,SBT4050,1,5,4.20008,0.13754,10596.234,19.5,
1573,SBT4050,1,5,4.20014,0.13072,10596.234,19.5,
1573,SBT4050,1,5,4.20008,0.12503,10596.234,19.5,
1573,SBT4050,1,5,4.20001,0.11957,10596.234,19.5,
1573,SBT4050,1,5,4.20001,0.1161,10596.234,19.5,
1573,SBT4050,1,5,4.20007,0.11118,10596.234,19.5,
1573,SBT4050,1,5,4.200128,0.10515,10596.234,19.5,
1573,SBT4050,1,5,4.19996,0.10124,10596.234,19.5,
1573,SBT4050,1,5,4.193664,0,10596.234,19.5,
1573,SBT4050,1,5,4.19035,0,10596.234,19.5,
1573,SBT4050,1,5,4.18773,0,10596.234,19.5,
1573,SBT4050,1,5,4.18534,0,10596.234,19.5,
1573,SBT4050,1,5,4.183574,0,10596.234,19.5,
1573,SBT4050,1,5,4.18182,0,10596.234,19.5,
1573,SBT4050,1,5,4.18009,0,10596.234,19.5,
1573,SBT4050,1,5,4.17883,0,10596.234,19.5,
1573,SBT4050,1,5,4.17761,0,10596.234,19.5,
1573,SBT4050,1,5,4.17618,0,10596.234,19.5,
1573,SBT4050,1,5,4.17508,0,10596.234,19.5,
1573,SBT4050,1,5,4.17397,0,10596.234,19.5,
1573,SBT4050,1,5,4.17306,0,10596.234,19.5,
1573,SBT4050,1,5,4.17175,0,10596.234,19.5,
1573,SBT4050,1,5,4.1711,0,10596.234,19.5,
1573,SBT4050,1,5,4.170344,0,10596.234,19.5,
1573,SBT4050,1,5,4.16921,0,10596.234,19.6,
1573,SBT4050,1,5,4.16839,0,10596.234,19.5,
1573,SBT4050,1,5,4.16794,0,10596.234,19.5,
1573,SBT4050,1,5,4.16704,0,10596.234,19.5,
1573,SBT4050,1,5,4.16609,0,10596.234,19.5,
1573,SBT4050,1,5,4.16544,0,10596.234,19.5,
1573,SBT4050,1,5,4.164748,0,10596.234,19.5,
1573,SBT4050,1,5,4.16409,0,10596.234,19.6,
1573,SBT4050,1,5,4.1635,0,10596.234,19.5,
1573,SBT4050,1,5,4.16243,0,10596.234,19.5,
1573,SBT4050,1,5,4.16227,0,10596.234,19.6,
1573,SBT4050,1,5,4.1615,0,10596.234,19.6,
1573,SBT4050,1,5,4.16113,0,10596.234,19.5,
1573,SBT4050,1,5,4.1606,0,10596.234,19.5,
1573,SBT4050,1,5,4.16005,0,10596.234,19.6,
1573,SBT4050,1,5,4.15969,0,10596.234,19.6,
1573,SBT4050,1,5,4.15882,0,10596.234,19.6,
1573,SBT4050,1,5,4.15837,0,10596.234,19.6,
1573,SBT4050,1,5,4.15805,0,10596.234,19.6,
1573,SBT4050,1,5,4.157634,0,10596.234,19.6,
1573,SBT4050,1,5,4.15723,0,10596.234,19.5,
1573,SBT4050,1,5,4.1567,0,10596.234,19.6,
1573,SBT4050,1,5,4.15664,0,10596.234,19.6,
1573,SBT4050,1,5,4.15594,0,10596.234,19.5,
1573,SBT4050,1,5,4.15566,0,10596.234,19.5,
1573,SBT4050,1,5,4.155306,0,10596.234,19.5,
1573,SBT4050,1,5,4.15477,0,10596.234,19.5,
1573,SBT4050,1,5,4.1543,0,10596.234,19.5,
1573,SBT4050,1,5,4.15406,0,10596.234,19.5,
1573,SBT4050,1,5,4.15345,0,10596.234,19.5,
1573,SBT4050,1,5,4.15327,0,10596.234,19.5,
1573,SBT4050,1,5,4.153002,0,10596.234,19.5,
1573,SBT4050,1,5,4.152572,0,10596.234,19.5,
1573,SBT4050,1,5,4.15228,0,10596.234,19.5,
1573,SBT4050,1,5,4.01235,-2.5,10618.948,19.6,
1573,SBT4050,1,5,3.95483,-2.4998,10668.948,19.7,
1573,SBT4050,1,5,3.914538,-2.4998,10718.947,19.9,
1573,SBT4050,1,5,3.883632,-2.5,10768.946,20,
1573,SBT4050,1,5,3.85736,-2.5001,10818.945,20.2,
1573,SBT4050,1,5,3.83375,-2.4998,10868.944,20.3,
1573,SBT4050,1,5,3.81129,-2.4998,10918.943,20.3,
1573,SBT4050,1,5,3.789488,-2.5001,10968.942,20.4,
1573,SBT4050,1,5,3.76906,-2.5,11018.941,20.4,
1573,SBT4050,1,5,3.74917,-2.4998,11068.94,20.5,
1573,SBT4050,1,5,3.72971,-2.4997,11118.939,20.5,
1573,SBT4050,1,5,3.71061,-2.4999,11168.938,20.5,
1573,SBT4050,1,5,3.69224,-2.4995,11218.937,20.5,
1573,SBT4050,1,5,3.67352,-2.4997,11268.936,20.5,
1573,SBT4050,1,5,3.65501,-2.4994,11318.935,20.5,
1573,SBT4050,1,5,3.6369,-2.4998,11368.934,20.5,
1573,SBT4050,1,5,3.61884,-2.5002,11418.933,20.5,
1573,SBT4050,1,5,3.601226,-2.4998,11468.932,20.5,
1573,SBT4050,1,5,3.58422,-2.4997,11518.931,20.5,
1573,SBT4050,1,5,3.56759,-2.4998,11568.93,20.5,
1573,SBT4050,1,5,3.552,-2.5,11618.929,20.5,
1573,SBT4050,1,5,3.5365,-2.4998,11668.928,20.4,
1573,SBT4050,1,5,3.52215,-2.5,11718.927,20.5,
1573,SBT4050,1,5,3.507618,-2.5,11768.926,20.4,
1573,SBT4050,1,5,3.4933,-2.5003,11818.925,20.4,
1573,SBT4050,1,5,3.47901,-2.4999,11868.924,20.4,
1573,SBT4050,1,5,3.46442,-2.4999,11918.923,20.4,
1573,SBT4050,1,5,3.44947,-2.4999,11968.922,20.4,
1573,SBT4050,1,5,3.43364,-2.5,12018.921,20.6,
1573,SBT4050,1,5,3.41672,-2.5,12068.92,20.6,
1573,SBT4050,1,5,3.39814,-2.4999,12118.919,20.6,
1573,SBT4050,1,5,3.37816,-2.4999,12168.918,20.7,
1573,SBT4050,1,5,3.35518,-2.5,12218.917,20.8,
1573,SBT4050,1,5,3.32933,-2.4994,12268.916,20.9,
1573,SBT4050,1,5,3.299003,-2.5001,12318.915,20.9,
1573,SBT4050,1,5,3.263358,-2.5001,12368.914,21,
1573,SBT4050,1,5,3.219782,-2.4998,12418.913,21.1,
1573,SBT4050,1,5,3.16556,-2.4997,12468.912,21.2,
1573,SBT4050,1,5,3.09829,-2.4995,12518.91,21.3,
1573,SBT4050,1,5,3.01629,-2.5001,12568.909,21.6,
1573,SBT4050,1,5,2.91287,-2.4996,12618.908,21.9,
1573,SBT4050,1,5,2.77949,-2.5,12668.907,22.2,
1573,SBT4050,1,5,2.6004,-2.4994,12718.907,22.6,
1573,SBT4050,1,5,2.9617,0,12739.844,22.3,
1573,SBT4050,1,5,3.00961,0,12739.844,21.5,
1573,SBT4050,1,5,3.02906,0,12739.844,20.9,
1573,SBT4050,1,5,3.040559,0,12739.844,20.5,
1573,SBT4050,1,5,3.44108,3.9997,12739.844,20.3,
1573,SBT4050,1,5,3.608946,4.0001,12739.844,20.6,
1573,SBT4050,1,5,3.64821,4.0001,12739.844,21.1,
1573,SBT4050,1,5,3.67919,3.9999,12739.844,21.3,
1573,SBT4050,1,5,3.70953,4.0003,12739.844,21.5,
1573,SBT4050,1,5,3.73929,4.0001,12739.844,21.5,
1573,SBT4050,1,5,3.76613,4,12739.844,21.5,
1573,SBT4050,1,5,3.78798,4,12739.844,21.6,
1573,SBT4050,1,5,3.81185,3.9995,12739.844,21.7,
1573,SBT4050,1,5,3.83892,3.9998,12739.844,21.7,
1573,SBT4050,1,5,3.86834,4,12739.844,21.8,
1573,SBT4050,1,5,3.89838,4.0004,12739.844,21.9,
1573,SBT4050,1,5,3.92957,3.9993,12739.844,21.9,
1573,SBT4050,1,5,3.962388,4.0001,12739.844,22,
1573,SBT4050,1,5,3.99585,4.0001,12739.844,22.2,
1573,SBT4050,1,5,4.02942,3.9995,12739.844,22.2,
1573,SBT4050,1,5,4.06329,3.9997,12739.844,22.2,
1573,SBT4050,1,5,4.09743,4,12739.844,22.3,
1573,SBT4050,1,5,4.13352,3.9998,12739.844,22.4,
1573,SBT4050,1,5,4.172592,4.0001,12739.844,22.4,
1573,SBT4050,1,5,4.20039,3.6386,12739.844,22.5,
1573,SBT4050,1,5,4.20034,2.9145,12739.844,22.3,
1573,SBT4050,1,5,4.19995,2.3911,12739.844,22.1,
1573,SBT4050,1,5,4.20008,2.0014,12739.844,21.7,
1573,SBT4050,1,5,4.19996,1.7049,12739.844,21.4,
1573,SBT4050,1,5,4.20013,1.4686,12739.844,21.1,
1573,SBT4050,1,5,4.200116,1.278,12739.844,20.9,
1573,SBT4050,1,5,4.20016,1.1238,12739.844,20.7,
1573,SBT4050,1,5,4.20004,0.9914,12739.844,20.6,
1573,SBT4050,1,5,4.20024,0.8837,12739.844,20.4,
1573,SBT4050,1,5,4.200092,0.79,12739.844,20.3,
1573,SBT4050,1,5,4.20003,0.7102,12739.844,20.3,
1573,SBT4050,1,5,4.200092,0.6414,12739.844,20.2,
1573,SBT4050,1,5,4.2,0.5804,12739.844,20.2,
1573,SBT4050,1,5,4.20014,0.5283,12739.844,20.1,
1573,SBT4050,1,5,4.20026,0.4806,12739.844,20.1,
1573,SBT4050,1,5,4.19995,0.44085,12739.844,19.9,
1573,SBT4050,1,5,4.20029,0.40476,12739.844,19.9,
1573,SBT4050,1,5,4.19998,0.37366,12739.844,19.9,
1573,SBT4050,1,5,4.20002,0.34473,12739.844,19.9,
1573,SBT4050,1,5,4.20024,0.31869,12739.844,19.9,
1573,SBT4050,1,5,4.19987,0.29754,12739.844,19.9,
1573,SBT4050,1,5,4.20018,0.27787,12739.844,19.8,
1573,SBT4050,1,5,4.20027,0.25968,12739.844,19.9,
1573,SBT4050,1,5,4.20006,0.24316,12739.844,19.9,
1573,SBT4050,1,5,4.20008,0.22833,12739.844,19.8,
1573,SBT4050,1,5,4.1999,0.21476,12739.844,19.8,
1573,SBT4050,1,5,4.200116,0.20161,12739.844,19.8,
1573,SBT4050,1,5,4.20015,0.1917,12739.844,19.8,
1573,SBT4050,1,5,4.20001,0.17971,12739.844,19.7,
1573,SBT4050,1,5,4.19991,0.17043,12739.844,19.8,
1573,SBT4050,1,5,4.20029,0.16109,12739.844,19.7,
1573,SBT4050,1,5,4.19995,0.15313,12739.844,19.7,
1573,SBT4050,1,5,4.20006,0.14441,12739.844,19.7,
1573,SBT4050,1,5,4.19991,0.13932,12739.844,19.7,
1573,SBT4050,1,5,4.200426,0.13273,12739.844,19.7,
1573,SBT4050,1,5,4.20022,0.12698,12739.844,19.7,
1573,SBT4050,1,5,4.19996,0.12131,12739.844,19.7,
1573,SBT4050,1,5,4.20022,0.11675,12739.844,19.7,
1573,SBT4050,1,5,4.20021,0.11158,12739.844,19.7,
1573,SBT4050,1,5,4.1999,0.1074,12739.844,19.8,
1573,SBT4050,1,5,4.19989,0.10236,12739.844,19.8,
1573,SBT4050,1,5,4.19326,0,12739.844,19.7,
1573,SBT4050,1,5,4.18974,0,12739.844,19.7,
1573,SBT4050,1,5,4.18757,0,12739.844,19.7,
1573,SBT4050,1,5,4.185276,0,12739.844,19.7,
1573,SBT4050,1,5,4.183306,0,12739.844,19.7,
1573,SBT4050,1,5,4.18173,0,12739.844,19.6,
1573,SBT4050,1,5,4.18013,0,12739.844,19.7,
1573,SBT4050,1,5,4.17887,0,12739.844,19.7,
1573,SBT4050,1,5,4.17738,0,12739.844,19.7,
1573,SBT4050,1,5,4.17622,0,12739.844,19.7,
1573,SBT4050,1,5,4.17486,0,12739.844,19.7,
1573,SBT4050,1,5,4.173942,0,12739.844,19.7,
1573,SBT4050,1,5,4.17307,0,12739.844,19.7,
1573,SBT4050,1,5,4.17174,0,12739.844,19.6,
1573,SBT4050,1,5,4.1709,0,12739.844,19.7,
1573,SBT4050,1,5,4.16978,0,12739.844,19.7,
1573,SBT4050,1,5,4.16895,0,12739.844,19.7,
1573,SBT4050,1,5,4.16839,0,12739.844,19.7,
1573,SBT4050,1,5,4.167186,0,12739.844,19.8,
1573,SBT4050,1,5,4.16687,0,12739.844,19.8,
1573,SBT4050,1,5,4.16613,0,12739.844,19.8,
1573,SBT4050,1,5,4.16517,0,12739.844,19.8,
1573,SBT4050,1,5,4.16453,0,12739.844,19.8,
1573,SBT4050,1,5,4.1639,0,12739.844,19.9,
1573,SBT4050,1,5,4.16363,0,12739.844,19.9,
1573,SBT4050,1,5,4.16222,0,12739.844,19.8,
1573,SBT4050,1,5,4.162022,0,12739.844,19.9,
1573,SBT4050,1,5,4.16139,0,12739.844,19.8,
1573,SBT4050,1,5,4.16096,0,12739.844,19.8,
1573,SBT4050,1,5,4.1606,0,12739.844,19.8,
1573,SBT4050,1,5,4.1597,0,12739.844,19.8,
1573,SBT4050,1,5,4.15921,0,12739.844,19.9,
1573,SBT4050,1,5,4.15872,0,12739.844,19.8,
1573,SBT4050,1,5,4.15867,0,12739.844,19.9,
1573,SBT4050,1,5,4.158132,0,12739.844,19.8,
1573,SBT4050,1,5,4.15747,0,12739.844,19.9,
1573,SBT4050,1,5,4.15676,0,12739.844,19.8,
1573,SBT4050,1,5,4.15645,0,12739.844,19.8,
1573,SBT4050,1,5,4.15613,0,12739.844,19.8,
1573,SBT4050,1,5,4.15561,0,12739.844,19.8,
1573,SBT4050,1,5,4.15534,0,12739.844,19.7,
1573,SBT4050,1,5,4.15507,0,12739.844,19.7,
1573,SBT4050,1,5,4.15462,0,12739.844,19.7,
1573,SBT4050,1,5,4.15416,0,12739.844,19.5,
1573,SBT4050,1,5,4.15382,0,12739.844,19.5,
1573,SBT4050,1,5,4.153702,0,12739.844,19.5,
1573,SBT4050,1,5,4.15335,0,12739.844,19.4,
1573,SBT4050,1,5,4.15324,0,12739.844,19.4,
1573,SBT4050,1,5,4.15252,0,12739.844,19.4,
1573,SBT4050,1,5,4.15212,0,12739.844,19.4,
1573,SBT4050,1,5,3.999366,-2.7169,12758.507,19.4,
1573,SBT4050,1,5,3.86069,-3.7909,12857.86,20.3,
1573,SBT4050,1,5,3.77787,-6.632,12893.808,20.3,
1573,SBT4050,1,5,3.82295,-0.4769,13046.433,22,
1573,SBT4050,1,5,3.98613,2.4971,13101.896,22.3,
1573,SBT4050,1,5,3.95251,1.6131,13158.305,21.9,
1573,SBT4050,1,5,3.74349,-2.4252,13238.049,21.7,
1573,SBT4050,1,5,3.68079,-4.4029,13296.929,21.6,
1573,SBT4050,1,5,3.77285,0.8888,13366.442,21.5,
1573,SBT4050,1,5,3.807308,-0.07798,13408.56,21.5,
1573,SBT4050,1,5,3.83921,3.632,13488.341,21.6,
1573,SBT4050,1,5,3.58827,-4.5132,13583.217,21.8,
1573,SBT4050,1,5,3.53938,-4.115,13684.841,22,
1573,SBT4050,1,5,3.35913,-9.756,13778.897,22,
1573,SBT4050,1,5,3.65502,-0.09099,13831.278,21.9,
1573,SBT4050,1,5,3.40737,-6.912,13907.433,21.6,
1573,SBT4050,1,5,3.618376,-0.063,13966.169,21.5,
1573,SBT4050,1,5,3.537928,-2.715,14018.258,21.3,
1573,SBT4050,1,5,3.59144,-0.08699,14088.437,21.4,
1573,SBT4050,1,5,3.53761,-0.14499,14144.554,21,
1573,SBT4050,1,5,3.31702,-6.172,14250.284,21.5,
1573,SBT4050,1,5,3.36788,-4.1245,14293.231,21.3,
1573,SBT4050,1,5,3.52569,1.91,14421.902,23.1,
1573,SBT4050,1,5,3.55482,0.22196,14453.396,22.4,
1573,SBT4050,1,5,3.531648,-0.06898,14509.018,22.4,
1573,SBT4050,1,5,3.468724,0.988,14594.169,22.5,
1573,SBT4050,1,5,3.280908,-3.879,14645.657,22.3,
1573,SBT4050,1,5,3.52591,3.9998,14713.877,22.4,
1573,SBT4050,1,5,3.50001,-0.044989,14720.598,21.7,
1573,SBT4050,1,5,3.61854,4.0001,14762.734,21.5,
1573,SBT4050,1,5,3.54845,1.5491,14791.304,21.3,
1573,SBT4050,1,5,3.29811,-2.0693,14869.11,21.8,
1573,SBT4050,1,5,3.59175,3.9997,14891.479,21.3,
1573,SBT4050,1,5,3.49447,-0.041004,14891.718,21.1,
1573,SBT4050,1,5,3.34971,-2.5088,14925.747,20.9,
1573,SBT4050,1,5,3.46509,-0.09299,14949.994,21,
1573,SBT4050,1,5,3.56413,3.3927,14989.836,21.2,
1573,SBT4050,1,5,3.47961,-0.05299,14996.68,20.9,
1573,SBT4050,1,5,3.47407,-0.038993,15009.068,20.7,
1573,SBT4050,1,5,3.4716,-0.05299,15009.972,20.4,
1573,SBT4050,1,5,3.471734,-0.034995,15010.891,20.3,
1573,SBT4050,1,5,3.47134,-0.03599,15011.736,20.1,
1573,SBT4050,1,5,3.4714,-0.040003,15012.53,20.1,
1573,SBT4050,1,5,3.47142,-0.030002,15013.348,20,
1573,SBT4050,1,5,3.47132,-0.031004,15014.15,20.1,
1573,SBT4050,1,5,3.47127,-0.030997,15014.893,20,
1573,SBT4050,1,5,3.470504,-0.044002,15015.605,20,
1573,SBT4050,1,5,3.47095,-0.041002,15016.312,20,
1573,SBT4050,1,5,3.47244,0,15016.93,20,
1573,SBT4050,1,5,3.47325,0,15016.93,20,
1573,SBT4050,1,5,3.47412,0,15016.93,20,
1573,SBT4050,1,5,3.47463,0,15016.93,20,
1573,SBT4050,1,5,3.47501,0,15016.93,19.9,
1573,SBT4050,1,5,3.68919,4,15016.93,20.3,
1573,SBT4050,1,5,3.73185,3.9999,15016.93,20.6,
1573,SBT4050,1,5,3.76733,4.0003,15016.93,20.9,
1573,SBT4050,1,5,3.790182,3.9999,15016.93,21.1,
1573,SBT4050,1,5,3.81462,3.9997,15016.93,21.2,
1573,SBT4050,1,5,3.843292,4.0001,15016.93,21.5,
1573,SBT4050,1,5,3.87466,3.9996,15016.93,21.7,
1573,SBT4050,1,5,3.90746,4.0004,15016.93,21.7,
1573,SBT4050,1,5,3.94176,3.9996,15016.93,21.9,
1573,SBT4050,1,5,3.97725,4.0003,15016.93,22,
1573,SBT4050,1,5,4.01315,4.0004,15016.93,22.1,
1573,SBT4050,1,5,4.04927,4.0004,15016.93,22.2,
1573,SBT4050,1,5,4.08463,3.9996,15016.93,22.3,
1573,SBT4050,1,5,4.12168,3.9993,15016.93,22.3,
1573,SBT4050,1,5,4.16064,3.9995,15016.93,22.3,
1573,SBT4050,1,5,4.20026,3.9161,15016.93,22.4,
1573,SBT4050,1,5,4.2002,3.0692,15016.93,22.3,
1573,SBT4050,1,5,4.20002,2.4883,15016.93,22.1,
1573,SBT4050,1,5,4.20023,2.0634,15016.93,21.8,
1573,SBT4050,1,5,4.2001,1.7436,15016.93,21.4,
1573,SBT4050,1,5,4.20029,1.4999,15016.93,21.2,
1573,SBT4050,1,5,4.200078,1.3006,15016.93,20.9,
1573,SBT4050,1,5,4.20009,1.1383,15016.93,20.7,
1573,SBT4050,1,5,4.2003,1.0034,15016.93,20.5,
1573,SBT4050,1,5,4.2004,0.8919,15016.93,20.4,
1573,SBT4050,1,5,4.20014,0.7957,15016.93,20.3,
1573,SBT4050,1,5,4.20002,0.7141,15016.93,20.2,
1573,SBT4050,1,5,4.1999,0.6457,15016.93,20.2,
1573,SBT4050,1,5,4.200066,0.5855,15016.93,20.1,
1573,SBT4050,1,5,4.200078,0.5335,15016.93,20.1,
1573,SBT4050,1,5,4.20002,0.4865,15016.93,20,
1573,SBT4050,1,5,4.1999,0.44573,15016.93,20,
1573,SBT4050,1,5,4.200066,0.41097,15016.93,20,
1573,SBT4050,1,5,4.19999,0.37993,15016.93,20,
1573,SBT4050,1,5,4.20046,0.34975,15016.93,20,
1573,SBT4050,1,5,4.19999,0.32334,15016.93,19.9,
1573,SBT4050,1,5,4.19996,0.3022,15016.93,20,
1573,SBT4050,1,5,4.200066,0.2815,15016.93,19.9,
1573,SBT4050,1,5,4.2003,0.26279,15016.93,19.9,
1573,SBT4050,1,5,4.19983,0.24625,15016.93,19.9,
1573,SBT4050,1,5,4.20002,0.23116,15016.93,19.9,
1573,SBT4050,1,5,4.200066,0.2164,15016.93,19.9,
1573,SBT4050,1,5,4.20001,0.20384,15016.93,19.9,
1573,SBT4050,1,5,4.2003,0.19362,15016.93,19.9,
1573,SBT4050,1,5,4.200042,0.18271,15016.93,19.9,
1573,SBT4050,1,5,4.20026,0.1732,15016.93,19.9,
1573,SBT4050,1,5,4.200066,0.16311,15016.93,19.9,
1573,SBT4050,1,5,4.200054,0.15501,15016.93,19.9,
1573,SBT4050,1,5,4.20029,0.14654,15016.93,19.9,
1573,SBT4050,1,5,4.2001,0.14078,15016.93,19.9,
1573,SBT4050,1,5,4.20017,0.13401,15016.93,19.9,
1573,SBT4050,1,5,4.20003,0.12872,15016.93,19.9,
1573,SBT4050,1,5,4.19991,0.12298,15016.93,19.9,
1573,SBT4050,1,5,4.19996,0.11785,15016.93,19.9,
1573,SBT4050,1,5,4.20033,0.11251,15016.93,19.9,
1573,SBT4050,1,5,4.19988,0.10809,15016.93,19.9,
1573,SBT4050,1,5,4.19993,0.10539,15016.93,19.9,
1573,SBT4050,1,5,4.19997,0.10037,15016.93,19.9,
1573,SBT4050,1,5,4.19115,0,15016.93,19.9,
1573,SBT4050,1,5,4.1882,0,15016.93,19.9,
1573,SBT4050,1,5,4.18631,0,15016.93,19.9,
1573,SBT4050,1,5,4.184294,0,15016.93,19.9,
1573,SBT4050,1,5,4.18254,0,15016.93,19.9,
1573,SBT4050,1,5,4.18076,0,15016.93,19.9,
1573,SBT4050,1,5,4.17946,0,15016.93,20,
1573,SBT4050,1,5,4.17773,0,15016.93,20,
1573,SBT4050,1,5,4.17675,0,15016.93,19.9,
1573,SBT4050,1,5,4.175662,0,15016.93,20,
1573,SBT4050,1,5,4.17417,0,15016.93,20,
1573,SBT4050,1,5,4.173174,0,15016.93,20,
1573,SBT4050,1,5,4.17209,0,15016.93,20,
1573,SBT4050,1,5,4.17106,0,15016.93,20,
1573,SBT4050,1,5,4.17014,0,15016.93,20.1,
1573,SBT4050,1,5,4.1691,0,15016.93,20,
1573,SBT4050,1,5,4.168228,0,15016.93,20.1,
1573,SBT4050,1,5,4.1674,0,15016.93,20.1,
1573,SBT4050,1,5,4.167,0,15016.93,20,
1573,SBT4050,1,5,4.16618,0,15016.93,20.1,
1573,SBT4050,1,5,4.16563,0,15016.93,20.1,
1573,SBT4050,1,5,4.16492,0,15016.93,20.1,
1573,SBT4050,1,5,4.16401,0,15016.93,20.2,
1573,SBT4050,1,5,4.16323,0,15016.93,20.1,
1573,SBT4050,1,5,4.16267,0,15016.93,20.2,
1573,SBT4050,1,5,4.16187,0,15016.93,20.2,
1573,SBT4050,1,5,4.161536,0,15016.93,20.2,
1573,SBT4050,1,5,4.16035,0,15016.93,20.3,
1573,SBT4050,1,5,4.15972,0,15016.93,20.3,
1573,SBT4050,1,5,4.159692,0,15016.93,20.3,
1573,SBT4050,1,5,4.1591,0,15016.93,20.3,
1573,SBT4050,1,5,4.15913,0,15016.93,20.3,
1573,SBT4050,1,5,4.1586,0,15016.93,20.4,
1573,SBT4050,1,5,4.15832,0,15016.93,20.4,
1573,SBT4050,1,5,4.15714,0,15016.93,20.4,
1573,SBT4050,1,5,4.15661,0,15016.93,20.3,
1573,SBT4050,1,5,4.156326,0,15016.93,20.4,
1573,SBT4050,1,5,4.15603,0,15016.93,20.4,
1573,SBT4050,1,5,4.155238,0,15016.93,20.5,
1573,SBT4050,1,5,4.155004,0,15016.93,20.4,
1573,SBT4050,1,5,4.154832,0,15016.93,20.4,
1573,SBT4050,1,5,4.15425,0,15016.93,20.5,
1573,SBT4050,1,5,4.15393,0,15016.93,20.4,
1573,SBT4050,1,5,4.153282,0,15016.93,20.5,
1573,SBT4050,1,5,4.15315,0,15016.93,20.5,
1573,SBT4050,1,5,4.1526,0,15016.93,20.5,
1573,SBT4050,1,5,4.15253,0,15016.93,20.4,
1573,SBT4050,1,5,4.15233,0,15016.93,20.5,
1573,SBT4050,1,5,4.15179,0,15016.93,20.5,
1573,SBT4050,1,5,4.15137,0,15016.93,20.5,
1573,SBT4050,1,5,3.89855,-3.2769,15094.693,21.1,
1573,SBT4050,1,5,3.63504,-14.5,15156.787,22.1,
1573,SBT4050,1,5,3.81256,-3.402,15261.238,22.6,
1573,SBT4050,1,5,3.68496,-7.377,15335.92,22.5,
1573,SBT4050,1,5,3.73777,-2.869,15460.984,23.4,
1573,SBT4050,1,5,3.7106,-2.8702,15556.432,23.5,
1573,SBT4050,1,5,3.77317,-3.0826,15592.7,23.1,
1573,SBT4050,1,5,3.42993,-14.498,15654.487,22.7,
1573,SBT4050,1,5,3.91839,1E-06,15705.942,,