File: Dataset/AANDCNet/cell2/cycle_28/Test1581.csv
Test:,1581,,,,,,,
Start Time:,8/11/2021 4:04 PM,,,,,,,
End Time:,8/12/2021 12:42 AM,,,,,,,
Test,Rack,Shelf,Position,Voltage (V),Current (A),Discharge Capacity (mAh),TC_1 (C),
1581,SBT4050,1,5,4.176316,0,0,19.7,
1581,SBT4050,1,5,4.17296,0,0,19.7,
1581,SBT4050,1,5,4.17035,0,0,19.5,
1581,SBT4050,1,5,4.20096,0.501,0,19.5,
1581,SBT4050,1,5,4.20032,0.40388,0,19.5,
1581,SBT4050,1,5,4.200068,0.35688,0,19.6,
1581,SBT4050,1,5,4.19997,0.32547,0,19.6,
1581,SBT4050,1,5,4.20028,0.30364,0,19.6,
1581,SBT4050,1,5,4.20021,0.28668,0,19.5,
1581,SBT4050,1,5,4.20014,0.27338,0,19.4,
1581,SBT4050,1,5,4.20004,0.26108,0,19.6,
1581,SBT4050,1,5,4.200104,0.25032,0,19.5,
1581,SBT4050,1,5,4.200104,0.24311,0,19.3,
1581,SBT4050,1,5,4.20015,0.23406,0,19.4,
1581,SBT4050,1,5,4.20015,0.22609,0,19.4,
1581,SBT4050,1,5,4.19997,0.21959,0,19.3,
1581,SBT4050,1,5,4.20021,0.21279,0,19.4,
1581,SBT4050,1,5,4.19989,0.20505,0,19.4,
1581,SBT4050,1,5,4.19975,0.20121,0,19.5,
1581,SBT4050,1,5,4.20024,0.19574,0,19.4,
1581,SBT4050,1,5,4.20018,0.19041,0,19.4,
1581,SBT4050,1,5,4.200068,0.18451,0,19.3,
1581,SBT4050,1,5,4.20014,0.17998,0,19.3,
1581,SBT4050,1,5,4.19998,0.17629,0,19.3,
1581,SBT4050,1,5,4.20006,0.17207,0,19.2,
1581,SBT4050,1,5,4.20014,0.16712,0,19.3,
1581,SBT4050,1,5,4.2,0.16367,0,19.3,
1581,SBT4050,1,5,4.20025,0.16088,0,19.3,
1581,SBT4050,1,5,4.20015,0.15738,0,19.3,
1581,SBT4050,1,5,4.19995,0.15367,0,19.4,
1581,SBT4050,1,5,4.20003,0.14974,0,19.2,
1581,SBT4050,1,5,4.200092,0.14706,0,19.2,
1581,SBT4050,1,5,4.20013,0.14357,0,19.2,
1581,SBT4050,1,5,4.20004,0.14112,0,19.2,
1581,SBT4050,1,5,4.20003,0.13821,0,19.2,
1581,SBT4050,1,5,4.20016,0.13477,0,19.2,
1581,SBT4050,1,5,4.20013,0.13269,0,19.2,
1581,SBT4050,1,5,4.2,0.13001,0,19.1,
1581,SBT4050,1,5,4.20003,0.12715,0,19.1,
1581,SBT4050,1,5,4.20008,0.12397,0,19.1,
1581,SBT4050,1,5,4.20015,0.12165,0,19.1,
1581,SBT4050,1,5,4.20014,0.1196,0,19.1,
1581,SBT4050,1,5,4.19998,0.1173,0,19.1,
1581,SBT4050,1,5,4.20004,0.11469,0,19.1,
1581,SBT4050,1,5,4.20031,0.1135,0,19,
1581,SBT4050,1,5,4.20003,0.11094,0,19.1,
1581,SBT4050,1,5,4.2,0.10951,0,19,
1581,SBT4050,1,5,4.200104,0.10688,0,19,
1581,SBT4050,1,5,4.20002,0.10507,0,19,
1581,SBT4050,1,5,4.19994,0.10416,0,19,
1581,SBT4050,1,5,4.20004,0.10254,0,19.1,
1581,SBT4050,1,5,4.20003,0.10119,0,19.1,
1581,SBT4050,1,5,4.19445,0,0,19.1,
1581,SBT4050,1,5,4.19282,0,0,19.1,
1581,SBT4050,1,5,4.19133,0,0,19.1,
1581,SBT4050,1,5,4.190136,0,0,19.1,
1581,SBT4050,1,5,4.18911,0,0,19.1,
1581,SBT4050,1,5,4.18818,0,0,19.1,
1581,SBT4050,1,5,4.18724,0,0,19.1,
1581,SBT4050,1,5,4.18655,0,0,19.1,
1581,SBT4050,1,5,4.185802,0,0,19.2,
1581,SBT4050,1,5,4.18507,0,0,19.2,
1581,SBT4050,1,5,4.18417,0,0,19.2,
1581,SBT4050,1,5,4.18352,0,0,19.2,
1581,SBT4050,1,5,4.18265,0,0,19.2,
1581,SBT4050,1,5,4.18217,0,0,19.2,
1581,SBT4050,1,5,4.18148,0,0,19.2,
1581,SBT4050,1,5,4.1807,0,0,19.2,
1581,SBT4050,1,5,4.18024,0,0,19.3,
1581,SBT4050,1,5,4.17958,0,0,19.2,
1581,SBT4050,1,5,4.17923,0,0,19.3,
1581,SBT4050,1,5,4.17878,0,0,19.3,
1581,SBT4050,1,5,4.178058,0,0,19.3,
1581,SBT4050,1,5,4.17751,0,0,19.3,
1581,SBT4050,1,5,4.17685,0,0,19.2,
1581,SBT4050,1,5,4.17647,0,0,19.2,
1581,SBT4050,1,5,4.17598,0,0,19.3,
1581,SBT4050,1,5,4.17575,0,0,19.3,
1581,SBT4050,1,5,4.17511,0,0,19.3,
1581,SBT4050,1,5,4.17465,0,0,19.4,
1581,SBT4050,1,5,4.174346,0,0,19.4,
1581,SBT4050,1,5,4.17383,0,0,19.4,
1581,SBT4050,1,5,4.17363,0,0,19.4,
1581,SBT4050,1,5,4.173,0,0,19.3,
1581,SBT4050,1,5,4.17268,0,0,19.4,
1581,SBT4050,1,5,4.1721,0,0,19.4,
1581,SBT4050,1,5,4.17197,0,0,19.5,
1581,SBT4050,1,5,4.17159,0,0,19.4,
1581,SBT4050,1,5,4.171046,0,0,19.4,
1581,SBT4050,1,5,4.170748,0,0,19.5,
1581,SBT4050,1,5,4.170332,0,0,19.4,
1581,SBT4050,1,5,4.17026,0,0,19.4,
1581,SBT4050,1,5,4.16963,0,0,19.4,
1581,SBT4050,1,5,4.169272,0,0,19.5,
1581,SBT4050,1,5,4.16916,0,0,19.4,
1581,SBT4050,1,5,4.168578,0,0,19.5,
1581,SBT4050,1,5,4.16811,0,0,19.5,
1581,SBT4050,1,5,4.16805,0,0,19.5,
1581,SBT4050,1,5,4.167978,0,0,19.5,
1581,SBT4050,1,5,4.16755,0,0,19.5,
1581,SBT4050,1,5,4.16699,0,0,19.5,
1581,SBT4050,1,5,4.16695,0,0,19.5,
1581,SBT4050,1,5,4.16638,0,0,19.5,
1581,SBT4050,1,5,4.16633,0,0,19.5,
1581,SBT4050,1,5,4.16604,0,0,19.5,
1581,SBT4050,1,5,4.165636,0,0,19.6,
1581,SBT4050,1,5,4.16525,0,0,19.5,
1581,SBT4050,1,5,4.16502,0,0,19.5,
1581,SBT4050,1,5,4.16458,0,0,19.5,
1581,SBT4050,1,5,4.1645,0,0,19.5,
1581,SBT4050,1,5,4.16428,0,0,19.5,
1581,SBT4050,1,5,4.16363,0,0,19.5,
1581,SBT4050,1,5,4.16376,0,0,19.5,
1581,SBT4050,1,5,4.16343,0,0,19.5,
1581,SBT4050,1,5,4.1633,0,0,19.5,
1581,SBT4050,1,5,4.16307,0,0,19.6,
1581,SBT4050,1,5,4.16287,0,0,19.6,
1581,SBT4050,1,5,4.16236,0,0,19.6,
1581,SBT4050,1,5,4.162088,0,0,19.5,
1581,SBT4050,1,5,4.16199,0,0,19.6,
1581,SBT4050,1,5,4.16196,0,0,19.6,
1581,SBT4050,1,5,4.16133,0,0,19.5,
1581,SBT4050,1,5,4.16128,0,0,19.6,
1581,SBT4050,1,5,4.16132,0,0,19.5,
1581,SBT4050,1,5,4.16083,0,0,19.6,
1581,SBT4050,1,5,4.16054,0,0,19.6,
1581,SBT4050,1,5,4.16032,0,0,19.5,
1581,SBT4050,1,5,4.16021,0,0,19.5,
1581,SBT4050,1,5,4.159884,0,0,19.6,
1581,SBT4050,1,5,4.1596,0,0,19.6,
1581,SBT4050,1,5,4.15935,0,0,19.6,
1581,SBT4050,1,5,4.1597,0,0,19.5,
1581,SBT4050,1,5,4.159342,0,0,19.6,
1581,SBT4050,1,5,4.15901,0,0,19.6,
1581,SBT4050,1,5,4.15879,0,0,19.5,
1581,SBT4050,1,5,4.158526,0,0,19.7,
1581,SBT4050,1,5,4.15833,0,0,19.7,
1581,SBT4050,1,5,4.157684,0,0,19.6,
1581,SBT4050,1,5,4.15818,0,0,19.6,
1581,SBT4050,1,5,4.157928,0,0,19.6,
1581,SBT4050,1,5,4.15747,0,0,19.7,
1581,SBT4050,1,5,4.15734,0,0,19.7,
1581,SBT4050,1,5,4.15731,0,0,19.7,
1581,SBT4050,1,5,4.15719,0,0,19.7,
1581,SBT4050,1,5,4.15707,0,0,19.6,
1581,SBT4050,1,5,4.156526,0,0,19.6,
1581,SBT4050,1,5,4.15626,0,0,19.6,
1581,SBT4050,1,5,4.15638,0,0,19.6,
1581,SBT4050,1,5,4.15614,0,0,19.6,
1581,SBT4050,1,5,4.15599,0,0,19.7,
1581,SBT4050,1,5,4.15589,0,0,19.7,
1581,SBT4050,1,5,4.15554,0,0,19.7,
1581,SBT4050,1,5,4.15527,0,0,19.8,
1581,SBT4050,1,5,4.15537,0,0,19.7,
1581,SBT4050,1,5,4.1552,0,0,19.7,
1581,SBT4050,1,5,4.15516,0,0,19.8,
1581,SBT4050,1,5,4.1549,0,0,19.7,
1581,SBT4050,1,5,4.15465,0,0,19.8,
1581,SBT4050,1,5,4.15448,0,0,19.7,
1581,SBT4050,1,5,4.15443,0,0,19.7,
1581,SBT4050,1,5,4.15445,0,0,19.7,
1581,SBT4050,1,5,4.154258,0,0,19.8,
1581,SBT4050,1,5,4.15402,0,0,19.7,
1581,SBT4050,1,5,4.15371,0,0,19.7,
1581,SBT4050,1,5,4.15352,0,0,19.7,
1581,SBT4050,1,5,4.153452,0,0,19.7,
1581,SBT4050,1,5,4.15352,0,0,19.7,
1581,SBT4050,1,5,4.153226,0,0,19.8,
1581,SBT4050,1,5,4.152998,0,0,19.7,
1581,SBT4050,1,5,4.15316,0,0,19.8,
1581,SBT4050,1,5,4.15297,0,0,19.7,
1581,SBT4050,1,5,4.15279,0,0,19.7,
1581,SBT4050,1,5,4.1526,0,0,19.8,
1581,SBT4050,1,5,4.152388,0,0,19.7,
1581,SBT4050,1,5,4.15225,0,0,19.8,
1581,SBT4050,1,5,4.15207,0,0,19.8,
1581,SBT4050,1,5,4.1521,0,0,19.8,
1581,SBT4050,1,5,4.15172,0,0,19.8,
1581,SBT4050,1,5,4.15162,0,0,19.8,
1581,SBT4050,1,5,4.151876,0,0,19.8,
1581,SBT4050,1,5,4.15172,-0.0001,0,,
1581,SBT4050,1,5,4.10705,0.9612,28.53,20,
1581,SBT4050,1,5,3.73321,-11.735,41.525,20.2,
1581,SBT4050,1,5,3.8333,-6.597,84.906,20.8,
1581,SBT4050,1,5,4.1453,3.9996,125.133,21.4,
1581,SBT4050,1,5,3.64479,-14.5,134.76,21.5,
1581,SBT4050,1,5,3.92028,-1.0891,189.224,21.9,
1581,SBT4050,1,5,3.7769,-5.175,220.267,22,
1581,SBT4050,1,5,3.8085,-3.7122,254.084,22,
1581,SBT4050,1,5,3.82117,-2.911,282.069,22,
1581,SBT4050,1,5,3.771914,-4.1449,310.207,21.9,
1581,SBT4050,1,5,3.743032,-3.0992,364.073,22.1,
1581,SBT4050,1,5,3.66072,-4.5003,425.773,22.5,
1581,SBT4050,1,5,3.70142,-4.7048,448.484,22.9,
1581,SBT4050,1,5,3.64687,-5.549,490.503,22.8,
1581,SBT4050,1,5,3.6827,-3.5557,531.183,22.9,
1581,SBT4050,1,5,3.71617,-2.825,553.494,22.8,
1581,SBT4050,1,5,3.89624,3.5939,574.613,22.7,
1581,SBT4050,1,5,3.6249,-8.173,580.477,22.5,
1581,SBT4050,1,5,3.6826,-5.906,599.371,22.4,
1581,SBT4050,1,5,3.83078,-0.031002,619.584,22.2,
1581,SBT4050,1,5,3.89901,4.0004,658.185,22.4,
1581,SBT4050,1,5,3.54627,-9.177,674.442,22.4,
1581,SBT4050,1,5,3.82087,-0.018997,689.022,22.4,
1581,SBT4050,1,5,3.71493,-0.602,741.548,22.6,
1581,SBT4050,1,5,3.78715,3.2987,787.041,22.8,
1581,SBT4050,1,5,3.80257,-0.037004,787.063,22.9,
1581,SBT4050,1,5,3.524054,-7.51,837.775,22.9,
1581,SBT4050,1,5,3.62217,-4.7985,855.698,23,
1581,SBT4050,1,5,3.61358,-2.4186,900.157,22.9,
1581,SBT4050,1,5,3.63416,-2.0551,923.831,22.7,
1581,SBT4050,1,5,3.69217,-0.07801,939.157,22.4,
1581,SBT4050,1,5,3.53628,-6.032,956.214,22.2,
1581,SBT4050,1,5,3.71923,1.035,969.843,22,
1581,SBT4050,1,5,3.68797,-1.671,974.645,21.8,
1581,SBT4050,1,5,3.74232,0.6119,979.584,21.6,
1581,SBT4050,1,5,3.74105,0.44304,982.877,21.4,
1581,SBT4050,1,5,3.76845,0.767,983.681,21.3,
1581,SBT4050,1,5,3.749088,-0.027998,985.049,21.1,
1581,SBT4050,1,5,3.804474,0.15699,985.053,21,
1581,SBT4050,1,5,3.80677,2.7074,1003.609,21,
1581,SBT4050,1,5,3.55374,-7.274,1018.347,21.1,
1581,SBT4050,1,5,3.453738,-8.061,1052.95,21,
1581,SBT4050,1,5,3.748778,-0.033995,1055.314,21.4,
1581,SBT4050,1,5,3.85266,3.9999,1074.362,21.3,
1581,SBT4050,1,5,3.530936,-5.326,1104.118,21.2,
1581,SBT4050,1,5,3.51051,-7.114,1121.701,21.5,
1581,SBT4050,1,5,3.87997,4.0001,1126.846,21.4,
1581,SBT4050,1,5,3.543552,-4.99,1157.641,21.5,
1581,SBT4050,1,5,3.77291,1.248,1166.129,21.7,
1581,SBT4050,1,5,3.70867,-0.49309,1178.085,21.6,
1581,SBT4050,1,5,3.73369,-0.13099,1180.101,21.2,
1581,SBT4050,1,5,3.726612,-0.5778,1181.665,21.1,
1581,SBT4050,1,5,3.65491,-2.499,1187.762,20.9,
1581,SBT4050,1,5,3.66711,-2.074,1199.552,20.8,
1581,SBT4050,1,5,3.85205,4.0004,1210.703,20.8,
1581,SBT4050,1,5,3.70967,-0.766,1215.582,20.7,
1581,SBT4050,1,5,3.724702,-0.20298,1219.082,20.5,
1581,SBT4050,1,5,3.78124,1.389,1221.592,20.5,
1581,SBT4050,1,5,3.73956,-0.47896,1221.81,20.5,
1581,SBT4050,1,5,3.90024,3.9996,1223.008,20.4,
1581,SBT4050,1,5,3.82203,2.6589,1233.247,20.5,
1581,SBT4050,1,5,3.844142,3.9999,1250.105,20.6,
1581,SBT4050,1,5,3.71574,-1.3981,1259.476,20.7,
1581,SBT4050,1,5,3.74099,-0.011998,1293.063,21,
1581,SBT4050,1,5,3.66618,-0.8158,1321.664,21.1,
1581,SBT4050,1,5,3.33927,-12.283,1341.341,21.1,
1581,SBT4050,1,5,3.37619,-10.18,1382.575,21.5,
1581,SBT4050,1,5,3.77874,3.9999,1418.159,22,
1581,SBT4050,1,5,3.27768,-14.499,1435.841,21.8,
1581,SBT4050,1,5,3.56007,-2.0009,1483.057,22.2,
1581,SBT4050,1,5,3.47288,-4.2096,1515.773,22.2,
1581,SBT4050,1,5,3.47996,-3.8378,1549.236,22.2,
1581,SBT4050,1,5,3.48874,-3.3421,1576.994,22.1,
1581,SBT4050,1,5,3.40456,-6.096,1605.944,22,
1581,SBT4050,1,5,3.43039,-3.5585,1658.806,22.2,
1581,SBT4050,1,5,3.43084,-2.0289,1720.539,22.7,
1581,SBT4050,1,5,3.351157,-6.417,1744.697,22.9,
1581,SBT4050,1,5,3.30333,-6.992,1786.882,22.9,
1581,SBT4050,1,5,3.35555,-4.7357,1826.713,23,
1581,SBT4050,1,5,3.39631,-3.8992,1848.346,22.9,
1581,SBT4050,1,5,3.63199,3.8673,1867.637,22.6,
1581,SBT4050,1,5,3.36994,-5.517,1877.527,22.3,
1581,SBT4050,1,5,3.30783,-7.972,1896.392,22.2,
1581,SBT4050,1,5,3.54525,-0.05299,1912.638,22,
1581,SBT4050,1,5,3.62276,3.628,1951.21,22.4,
1581,SBT4050,1,5,3.22318,-8.764,1972.503,22.4,
1581,SBT4050,1,5,3.53866,-0.05299,1982.062,22.4,
1581,SBT4050,1,5,3.450752,-0.5358,2034.891,22.7,
1581,SBT4050,1,5,3.55748,3.5724,2080.066,23.3,
1581,SBT4050,1,5,3.52711,-0.029994,2080.113,23.2,
1581,SBT4050,1,5,3.17845,-7.821,2135.122,23.2,
1581,SBT4050,1,5,3.20401,-8.3,2152.358,23.5,
1581,SBT4050,1,5,3.33846,-2.1011,2194.354,23.4,
1581,SBT4050,1,5,3.33786,-2.3567,2218.006,23.3,
1581,SBT4050,1,5,3.41945,-0.37403,2232.408,23,
1581,SBT4050,1,5,3.24464,-3.8941,2251.997,22.7,
1581,SBT4050,1,5,3.33698,-2.7472,2263.351,22.5,
1581,SBT4050,1,5,3.4624,-0.06698,2268.007,22.2,
1581,SBT4050,1,5,3.47441,0.26201,2272.609,22,
1581,SBT4050,1,5,3.4408,-0.7119,2275.993,21.7,
1581,SBT4050,1,5,3.49519,0.359,2276.706,21.4,
1581,SBT4050,1,5,3.5544,2.3505,2278.078,21.2,
1581,SBT4050,1,5,3.52209,-0.030001,2278.09,21.2,
1581,SBT4050,1,5,3.59658,3.9996,2296.634,21.1,
1581,SBT4050,1,5,3.38591,-1.6128,2313.952,21.1,
1581,SBT4050,1,5,3.45191,2.8527,2348.219,21.3,
1581,SBT4050,1,5,3.47599,-0.035991,2348.362,21.8,
1581,SBT4050,1,5,3.603874,3.9998,2367.388,21.8,
1581,SBT4050,1,5,3.19635,-4.1119,2399.684,21.7,
1581,SBT4050,1,5,3.18346,-4.98,2418.195,22,
1581,SBT4050,1,5,3.624676,4.0001,2419.872,21.9,
1581,SBT4050,1,5,3.2471,-3.3062,2452.99,21.9,
1581,SBT4050,1,5,3.50056,0.898,2459.155,22.3,
1581,SBT4050,1,5,3.4124,-0.9011,2471.337,22.1,
1581,SBT4050,1,5,3.40381,-1.7012,2473.489,21.9,
1581,SBT4050,1,5,3.4565,-0.24598,2474.852,21.5,
1581,SBT4050,1,5,3.345141,-2.1589,2482.125,21.3,
1581,SBT4050,1,5,3.264895,-4.1576,2494.264,21.2,
1581,SBT4050,1,5,3.55303,2.0821,2503.729,21.2,
1581,SBT4050,1,5,3.41065,-1.091,2509.079,21,
1581,SBT4050,1,5,3.44899,-0.040001,2512.18,21,
1581,SBT4050,1,5,3.49412,0.6169,2514.618,20.8,
1581,SBT4050,1,5,3.46122,-0.47095,2514.968,20.6,
1581,SBT4050,1,5,3.64094,3.9998,2516.034,20.6,
1581,SBT4050,1,5,3.51439,0.9969,2526.273,20.6,
1581,SBT4050,1,5,3.59801,4.0005,2543.131,20.7,
1581,SBT4050,1,5,3.248026,-5.891,2554.478,20.7,
1581,SBT4050,1,5,3.46697,0,2586.051,21.6,
1581,SBT4050,1,5,3.46111,0,2586.051,21.4,
1581,SBT4050,1,5,3.46226,0,2586.051,21.2,
1581,SBT4050,1,5,3.46332,0,2586.051,21,
1581,SBT4050,1,5,3.46421,0,2586.051,20.9,
1581,SBT4050,1,5,3.46479,0,2586.051,20.8,
1581,SBT4050,1,5,3.4651,0,2586.051,20.6,
1581,SBT4050,1,5,3.46561,0,2586.051,20.6,
1581,SBT4050,1,5,3.46621,0,2586.051,20.5,
1581,SBT4050,1,5,3.46668,0,2586.051,20.4,
1581,SBT4050,1,5,3.46706,0,2586.051,20.3,
1581,SBT4050,1,5,3.63171,3.9997,2586.051,20.2,
1581,SBT4050,1,5,3.65974,4.0001,2586.051,20.4,
1581,SBT4050,1,5,3.67853,4.0005,2586.051,20.5,
1581,SBT4050,1,5,3.69665,4.0001,2586.051,20.6,
1581,SBT4050,1,5,3.71407,3.9998,2586.051,20.6,
1581,SBT4050,1,5,3.72972,3.9998,2586.051,21,
1581,SBT4050,1,5,3.744876,4,2586.051,21,
1581,SBT4050,1,5,3.758766,4.0001,2586.051,21.2,
1581,SBT4050,1,5,3.77027,3.999,2586.051,21.1,
1581,SBT4050,1,5,3.779872,3.9997,2586.051,21.3,
1581,SBT4050,1,5,3.78832,3.9998,2586.051,21.3,
1581,SBT4050,1,5,3.79733,3.9995,2586.051,21.3,
1581,SBT4050,1,5,3.80677,4.0004,2586.051,21.5,
1581,SBT4050,1,5,3.81705,3.9998,2586.051,21.5,
1581,SBT4050,1,5,3.82821,4.0004,2586.051,21.6,
1581,SBT4050,1,5,3.83997,3.9998,2586.051,21.6,
1581,SBT4050,1,5,3.851978,3.9994,2586.051,21.6,
1581,SBT4050,1,5,3.86458,4,2586.051,21.7,
1581,SBT4050,1,5,3.87703,4.0004,2586.051,21.7,
1581,SBT4050,1,5,3.889486,4,2586.051,21.8,
1581,SBT4050,1,5,3.902712,4.0004,2586.051,21.8,
1581,SBT4050,1,5,3.916008,4,2586.051,22,
1581,SBT4050,1,5,3.92935,4.0001,2586.051,22,
1581,SBT4050,1,5,3.94291,4.0003,2586.051,21.9,
1581,SBT4050,1,5,3.95721,4.0001,2586.051,22,
1581,SBT4050,1,5,3.97106,4.0001,2586.051,22,
1581,SBT4050,1,5,3.98493,4.0003,2586.051,22.2,
1581,SBT4050,1,5,3.99908,4.0006,2586.051,22.2,
1581,SBT4050,1,5,4.01307,4,2586.051,22.2,
1581,SBT4050,1,5,4.0273,4.0001,2586.051,22.2,
1581,SBT4050,1,5,4.041572,3.9997,2586.051,22.2,
1581,SBT4050,1,5,4.055394,4,2586.051,22.3,
1581,SBT4050,1,5,4.069468,4.0007,2586.051,22.4,
1581,SBT4050,1,5,4.08314,4,2586.051,22.4,
1581,SBT4050,1,5,4.09721,4.0003,2586.051,22.4,
1581,SBT4050,1,5,4.11189,3.9995,2586.051,22.4,
1581,SBT4050,1,5,4.12697,3.9998,2586.051,22.4,
1581,SBT4050,1,5,4.14188,3.9998,2586.051,22.4,
1581,SBT4050,1,5,4.15749,4.0001,2586.051,22.5,
1581,SBT4050,1,5,4.17338,3.9998,2586.051,22.5,
1581,SBT4050,1,5,4.18994,3.9994,2586.051,22.5,
1581,SBT4050,1,5,4.20016,3.8067,2586.051,22.6,
1581,SBT4050,1,5,4.200048,3.4491,2586.051,22.6,
1581,SBT4050,1,5,4.20027,3.1565,2586.051,22.5,
1581,SBT4050,1,5,4.20007,2.8954,2586.051,22.3,
1581,SBT4050,1,5,4.2002,2.666,2586.051,22.3,
1581,SBT4050,1,5,4.20018,2.4653,2586.051,22.2,
1581,SBT4050,1,5,4.20011,2.2873,2586.051,22.1,
1581,SBT4050,1,5,4.20014,2.1257,2586.051,22,
1581,SBT4050,1,5,4.20027,1.9847,2586.051,21.8,
1581,SBT4050,1,5,4.2002,1.8585,2586.051,21.7,
1581,SBT4050,1,5,4.20031,1.7419,2586.051,21.4,
1581,SBT4050,1,5,4.20013,1.6391,2586.051,21.3,
1581,SBT4050,1,5,4.2001,1.5403,2586.051,21.2,
1581,SBT4050,1,5,4.19988,1.4569,2586.051,21.2,
1581,SBT4050,1,5,4.20007,1.3753,2586.051,21.1,
1581,SBT4050,1,5,4.20018,1.3003,2586.051,21,
1581,SBT4050,1,5,4.19982,1.235,2586.051,20.9,
1581,SBT4050,1,5,4.20014,1.1714,2586.051,20.8,
1581,SBT4050,1,5,4.20014,1.1135,2586.051,20.8,
1581,SBT4050,1,5,4.20006,1.0601,2586.051,20.6,
1581,SBT4050,1,5,4.200012,1.0089,2586.051,20.6,
1581,SBT4050,1,5,4.200024,0.9624,2586.051,20.6,
1581,SBT4050,1,5,4.19998,0.92,2586.051,20.6,
1581,SBT4050,1,5,4.19999,0.8798,2586.051,20.6,
1581,SBT4050,1,5,4.2002,0.8402,2586.051,20.5,
1581,SBT4050,1,5,4.20014,0.8071,2586.051,20.4,
1581,SBT4050,1,5,4.200036,0.7713,2586.051,20.4,
1581,SBT4050,1,5,4.20008,0.7396,2586.051,20.3,
1581,SBT4050,1,5,4.19999,0.709,2586.051,20.3,
1581,SBT4050,1,5,4.20008,0.6807,2586.051,20.3,
1581,SBT4050,1,5,4.2,0.6545,2586.051,20.3,
1581,SBT4050,1,5,4.200036,0.6298,2586.051,20.3,
1581,SBT4050,1,5,4.19985,0.6066,2586.051,20.2,
1581,SBT4050,1,5,4.20017,0.5842,2586.051,20.2,
1581,SBT4050,1,5,4.20024,0.5612,2586.051,20.1,
1581,SBT4050,1,5,4.20007,0.54,2586.051,20.2,
1581,SBT4050,1,5,4.20021,0.5233,2586.051,20.2,
1581,SBT4050,1,5,4.20006,0.5038,2586.051,20.2,
1581,SBT4050,1,5,4.19989,0.4888,2586.051,20.2,
1581,SBT4050,1,5,4.2001,0.47065,2586.051,20.2,
1581,SBT4050,1,5,4.200036,0.45674,2586.051,20.1,
1581,SBT4050,1,5,4.20006,0.44042,2586.051,20.1,
1581,SBT4050,1,5,4.20014,0.42594,2586.051,20.1,
1581,SBT4050,1,5,4.19998,0.41279,2586.051,20,
1581,SBT4050,1,5,4.200012,0.40014,2586.051,20.1,
1581,SBT4050,1,5,4.20018,0.38677,2586.051,20,
1581,SBT4050,1,5,4.20023,0.3754,2586.051,20,
1581,SBT4050,1,5,4.2001,0.36373,2586.051,20,
1581,SBT4050,1,5,4.19999,0.35267,2586.051,20,
1581,SBT4050,1,5,4.20011,0.34216,2586.051,20,
1581,SBT4050,1,5,4.20013,0.33259,2586.051,20,
1581,SBT4050,1,5,4.19995,0.32182,2586.051,20,
1581,SBT4050,1,5,4.20016,0.31366,2586.051,20.1,
1581,SBT4050,1,5,4.1999,0.30376,2586.051,20,
1581,SBT4050,1,5,4.2,0.29661,2586.051,20,
1581,SBT4050,1,5,4.19982,0.28928,2586.051,20,
1581,SBT4050,1,5,4.2001,0.28181,2586.051,20,
1581,SBT4050,1,5,4.19992,0.27346,2586.051,20,
1581,SBT4050,1,5,4.20021,0.26605,2586.051,20,
1581,SBT4050,1,5,4.2002,0.26048,2586.051,20,
1581,SBT4050,1,5,4.20024,0.25276,2586.051,20,
1581,SBT4050,1,5,4.200048,0.24625,2586.051,20,
1581,SBT4050,1,5,4.20016,0.24104,2586.051,20,
1581,SBT4050,1,5,4.19998,0.23486,2586.051,20,
1581,SBT4050,1,5,4.20023,0.22934,2586.051,19.9,
1581,SBT4050,1,5,4.20019,0.2231,2586.051,19.9,
1581,SBT4050,1,5,4.19982,0.21971,2586.051,19.9,
1581,SBT4050,1,5,4.20023,0.2139,2586.051,19.9,
1581,SBT4050,1,5,4.20013,0.2081,2586.051,20,
1581,SBT4050,1,5,4.19986,0.20269,2586.051,19.9,
1581,SBT4050,1,5,4.20011,0.19839,2586.051,20,
1581,SBT4050,1,5,4.20012,0.19534,2586.051,20,
1581,SBT4050,1,5,4.20018,0.19063,2586.051,19.9,
1581,SBT4050,1,5,4.19998,0.18631,2586.051,20,
1581,SBT4050,1,5,4.200036,0.18271,2586.051,19.9,
1581,SBT4050,1,5,4.200024,0.17866,2586.051,19.9,
1581,SBT4050,1,5,4.2,0.17601,2586.051,19.9,
1581,SBT4050,1,5,4.20021,0.1711,2586.051,20,
1581,SBT4050,1,5,4.200036,0.16777,2586.051,20,
1581,SBT4050,1,5,4.20018,0.16386,2586.051,19.9,
1581,SBT4050,1,5,4.19983,0.16024,2586.051,20,
1581,SBT4050,1,5,4.20038,0.15769,2586.051,20,
1581,SBT4050,1,5,4.19995,0.15397,2586.051,19.9,
1581,SBT4050,1,5,4.20008,0.15068,2586.051,20,
1581,SBT4050,1,5,4.19989,0.14833,2586.051,20,
1581,SBT4050,1,5,4.19987,0.14595,2586.051,19.9,
1581,SBT4050,1,5,4.19999,0.14359,2586.051,20,
1581,SBT4050,1,5,4.200024,0.1411,2586.051,20,
1581,SBT4050,1,5,4.19992,0.13753,2586.051,19.9,
1581,SBT4050,1,5,4.2002,0.13581,2586.051,19.9,
1581,SBT4050,1,5,4.200024,0.13224,2586.051,20,
1581,SBT4050,1,5,4.20013,0.13065,2586.051,20,
1581,SBT4050,1,5,4.20006,0.12801,2586.051,20,
1581,SBT4050,1,5,4.20017,0.12619,2586.051,20,
1581,SBT4050,1,5,4.19998,0.12441,2586.051,20,
1581,SBT4050,1,5,4.20019,0.12242,2586.051,20,
1581,SBT4050,1,5,4.19982,0.12033,2586.051,20,
1581,SBT4050,1,5,4.19994,0.11798,2586.051,19.9,
1581,SBT4050,1,5,4.200036,0.11621,2586.051,20,
1581,SBT4050,1,5,4.20008,0.11506,2586.051,19.9,
1581,SBT4050,1,5,4.19999,0.11221,2586.051,20,
1581,SBT4050,1,5,4.19996,0.11056,2586.051,20,
1581,SBT4050,1,5,4.19983,0.10971,2586.051,20,
1581,SBT4050,1,5,4.20012,0.10666,2586.051,20,
1581,SBT4050,1,5,4.20017,0.10545,2586.051,20,
1581,SBT4050,1,5,4.200012,0.10301,2586.051,20.1,
1581,SBT4050,1,5,4.200012,0.10279,2586.051,19.9,
1581,SBT4050,1,5,4.200036,0.10139,2586.051,20,
1581,SBT4050,1,5,4.19494,0,2586.051,20,
1581,SBT4050,1,5,4.19265,0,2586.051,20,
1581,SBT4050,1,5,4.19158,0,2586.051,20,
1581,SBT4050,1,5,4.19041,0,2586.051,20,
1581,SBT4050,1,5,4.18954,0,2586.051,20,
1581,SBT4050,1,5,4.1883,0,2586.051,20,
1581,SBT4050,1,5,4.18756,0,2586.051,19.9,
1581,SBT4050,1,5,4.186912,0,2586.051,20,
1581,SBT4050,1,5,4.18602,0,2586.051,20,
1581,SBT4050,1,5,4.18489,0,2586.051,20,
1581,SBT4050,1,5,4.18434,0,2586.051,20,
1581,SBT4050,1,5,4.18348,0,2586.051,20,
1581,SBT4050,1,5,4.182694,0,2586.051,19.9,
1581,SBT4050,1,5,4.18209,0,2586.051,20,
1581,SBT4050,1,5,4.18145,0,2586.051,20.1,
1581,SBT4050,1,5,4.181146,0,2586.051,20.1,
1581,SBT4050,1,5,4.18048,0,2586.051,20,
1581,SBT4050,1,5,4.18012,0,2586.051,19.9,
1581,SBT4050,1,5,4.17949,0,2586.051,20,
1581,SBT4050,1,5,4.178748,0,2586.051,20,
1581,SBT4050,1,5,4.1782,0,2586.051,20,
1581,SBT4050,1,5,4.17726,0,2586.051,19.9,
1581,SBT4050,1,5,4.17708,0,2586.051,20,
1581,SBT4050,1,5,4.17644,0,2586.051,20,
1581,SBT4050,1,5,4.17618,0,2586.051,20,
1581,SBT4050,1,5,4.17579,0,2586.051,19.9,
1581,SBT4050,1,5,4.17547,0,2586.051,19.9,
1581,SBT4050,1,5,4.17506,0,2586.051,20,
1581,SBT4050,1,5,4.17465,0,2586.051,20,
1581,SBT4050,1,5,4.17373,0,2586.051,20,
1581,SBT4050,1,5,4.17386,0,2586.051,19.9,
1581,SBT4050,1,5,4.17316,0,2586.051,20,
1581,SBT4050,1,5,4.17311,0,2586.051,19.9,
1581,SBT4050,1,5,4.17247,0,2586.051,19.9,
1581,SBT4050,1,5,4.17204,0,2586.051,20,
1581,SBT4050,1,5,4.17171,0,2586.051,20,
1581,SBT4050,1,5,4.17118,0,2586.051,20,
1581,SBT4050,1,5,4.17065,0,2586.051,20.1,
1581,SBT4050,1,5,4.17054,0,2586.051,20,
1581,SBT4050,1,5,4.170282,0,2586.051,20,
1581,SBT4050,1,5,4.16967,0,2586.051,20,
1581,SBT4050,1,5,4.169566,0,2586.051,20,
1581,SBT4050,1,5,4.169004,0,2586.051,20,
1581,SBT4050,1,5,4.16895,0,2586.051,20,
1581,SBT4050,1,5,4.16867,0,2586.051,20,
1581,SBT4050,1,5,4.16846,0,2586.051,20,
1581,SBT4050,1,5,4.16774,0,2586.051,20,
1581,SBT4050,1,5,4.167694,0,2586.051,20,
1581,SBT4050,1,5,4.16727,0,2586.051,20,
1581,SBT4050,1,5,4.16711,0,2586.051,20,
1581,SBT4050,1,5,4.16665,0,2586.051,20.1,
1581,SBT4050,1,5,4.16633,0,2586.051,19.9,
1581,SBT4050,1,5,4.16601,0,2586.051,20,
1581,SBT4050,1,5,4.165756,0,2586.051,19.9,
1581,SBT4050,1,5,4.16531,0,2586.051,20,
1581,SBT4050,1,5,4.16541,0,2586.051,20,
1581,SBT4050,1,5,4.16508,0,2586.051,20,
1581,SBT4050,1,5,4.16474,0,2586.051,19.9,
1581,SBT4050,1,5,4.16447,0,2586.051,20,
1581,SBT4050,1,5,4.16479,0,2586.051,20,
1581,SBT4050,1,5,4.16423,0,2586.051,20,
1581,SBT4050,1,5,4.16373,0,2586.051,20.1,
1581,SBT4050,1,5,4.16338,0,2586.051,20,
1581,SBT4050,1,5,4.16331,0,2586.051,20,
1581,SBT4050,1,5,4.16301,0,2586.051,20,
1581,SBT4050,1,5,4.16275,0,2586.051,20,
1581,SBT4050,1,5,4.16243,0,2586.051,20,
1581,SBT4050,1,5,4.16241,0,2586.051,20.1,
1581,SBT4050,1,5,4.162086,0,2586.051,20.1,
1581,SBT4050,1,5,4.1617,0,2586.051,20.1,
1581,SBT4050,1,5,4.161732,0,2586.051,20,
1581,SBT4050,1,5,4.16159,0,2586.051,20,
1581,SBT4050,1,5,4.16098,0,2586.051,20,
1581,SBT4050,1,5,4.16061,0,2586.051,20,
1581,SBT4050,1,5,4.16064,0,2586.051,20,
1581,SBT4050,1,5,4.160372,0,2586.051,20,
1581,SBT4050,1,5,4.16039,0,2586.051,19.9,
1581,SBT4050,1,5,4.16035,0,2586.051,20,
1581,SBT4050,1,5,4.15995,0,2586.051,20,
1581,SBT4050,1,5,4.15953,0,2586.051,20,
1581,SBT4050,1,5,4.15963,0,2586.051,20,
1581,SBT4050,1,5,4.15942,0,2586.051,20,
1581,SBT4050,1,5,4.15917,0,2586.051,19.9,
1581,SBT4050,1,5,4.15907,0,2586.051,20,
1581,SBT4050,1,5,4.159028,0,2586.051,19.9,
1581,SBT4050,1,5,4.15865,0,2586.051,20,
1581,SBT4050,1,5,4.158384,0,2586.051,20,
1581,SBT4050,1,5,4.158182,0,2586.051,20.1,
1581,SBT4050,1,5,4.158076,0,2586.051,20,
1581,SBT4050,1,5,4.1578,0,2586.051,20,
1581,SBT4050,1,5,4.15766,0,2586.051,20,
1581,SBT4050,1,5,4.1576,0,2586.051,20.1,
1581,SBT4050,1,5,4.15734,0,2586.051,20,
1581,SBT4050,1,5,4.15729,0,2586.051,20,
1581,SBT4050,1,5,4.157178,0,2586.051,20,
1581,SBT4050,1,5,4.15703,0,2586.051,20,
1581,SBT4050,1,5,4.15695,0,2586.051,20,
1581,SBT4050,1,5,4.15654,0,2586.051,20.1,
1581,SBT4050,1,5,4.15646,0,2586.051,20.1,
1581,SBT4050,1,5,4.156262,0,2586.051,20.1,
1581,SBT4050,1,5,4.156234,0,2586.051,20,
1581,SBT4050,1,5,4.15591,0,2586.051,20,
1581,SBT4050,1,5,4.15586,0,2586.051,20,
1581,SBT4050,1,5,4.15568,0,2586.051,20,
1581,SBT4050,1,5,4.15543,0,2586.051,20,
1581,SBT4050,1,5,4.155254,0,2586.051,20,
1581,SBT4050,1,5,4.15507,0,2586.051,20,
1581,SBT4050,1,5,4.154902,0,2586.051,20,
1581,SBT4050,1,5,4.155108,0,2586.051,20,
1581,SBT4050,1,5,4.15491,0,2586.051,20.1,
1581,SBT4050,1,5,4.15468,0,2586.051,20,
1581,SBT4050,1,5,4.1541,0,2586.051,20,
1581,SBT4050,1,5,4.154132,0,2586.051,20,
1581,SBT4050,1,5,4.15418,0,2586.051,20,
1581,SBT4050,1,5,4.15401,0,2586.051,20,
1581,SBT4050,1,5,4.15411,0,2586.051,20,
1581,SBT4050,1,5,4.15377,0,2586.051,20,
1581,SBT4050,1,5,4.15387,0,2586.051,20,
1581,SBT4050,1,5,4.15342,0,2586.051,20,
1581,SBT4050,1,5,4.15306,0,2586.051,20,
1581,SBT4050,1,5,4.15318,0,2586.051,20,
1581,SBT4050,1,5,4.15283,0,2586.051,20,
1581,SBT4050,1,5,4.15287,0,2586.051,20,
1581,SBT4050,1,5,4.15287,0,2586.051,20,
1581,SBT4050,1,5,4.152424,0,2586.051,20,
1581,SBT4050,1,5,4.1525,0,2586.051,20,
1581,SBT4050,1,5,4.15224,0,2586.051,20,
1581,SBT4050,1,5,4.15239,0,2586.051,19.9,
1581,SBT4050,1,5,4.15233,0,2586.051,20,
1581,SBT4050,1,5,4.16151,0.17397,2586.051,20,
1581,SBT4050,1,5,4.08173,-0.505,2602.93,20,
1581,SBT4050,1,5,3.99414,-3.1298,2611.044,20.1,
1581,SBT4050,1,5,4.09743,0.5789,2639.494,20.3,
1581,SBT4050,1,5,4.1534,4.0002,2667.145,20.6,
1581,SBT4050,1,5,3.73175,-8.715,2700.314,20.9,
1581,SBT4050,1,5,3.8565,-3.8308,2732.994,21.2,
1581,SBT4050,1,5,4.01442,-0.00899,2748.448,21.6,
1581,SBT4050,1,5,3.97639,-1.7289,2749.197,21.4,
1581,SBT4050,1,5,3.74226,-6.699,2795.312,21.4,
1581,SBT4050,1,5,3.98933,-0.032998,2801.84,21.5,
1581,SBT4050,1,5,3.63087,-10.844,2826.81,21.3,
1581,SBT4050,1,5,3.65627,-8.483,2880.345,22,
1581,SBT4050,1,5,3.71989,-5.859,2917.775,22.3,
1581,SBT4050,1,5,3.72412,-3.1755,2983.642,22.8,
1581,SBT4050,1,5,3.64575,-4.751,3043.575,23.3,
1581,SBT4050,1,5,3.6965,-2.185,3090.556,23.5,
1581,SBT4050,1,5,3.52148,-11.553,3114.874,23.5,
1581,SBT4050,1,5,3.87112,2.0132,3137.538,23.5,
1581,SBT4050,1,5,3.82876,-0.018999,3145.873,23.1,
1581,SBT4050,1,5,3.6813,-6.426,3149.873,22.8,
1581,SBT4050,1,5,3.63409,-5.417,3199.03,22.7,
1581,SBT4050,1,5,3.60212,-6.424,3230.957,22.8,
1581,SBT4050,1,5,3.53629,-6.972,3281.479,22.9,
1581,SBT4050,1,5,3.82145,2.4258,3295.371,23,
1581,SBT4050,1,5,3.62072,-3.8356,3333.345,22.8,
1581,SBT4050,1,5,3.773,-0.067,3336.442,22.4,
1581,SBT4050,1,5,3.681932,-2.1601,3352.91,22.4,
1581,SBT4050,1,5,3.65006,-2.4399,3390.548,22.4,
1581,SBT4050,1,5,3.7404,-0.5829,3393.765,22.3,
1581,SBT4050,1,5,3.277,-14.5,3448.074,22.2,
1581,SBT4050,1,5,3.29003,-11.962,3537.904,23.6,
1581,SBT4050,1,5,3.47429,-4.4485,3594.22,24.2,
1581,SBT4050,1,5,3.71819,4.0001,3632.628,24.4,
1581,SBT4050,1,5,3.33691,-12.657,3652.319,24.2,
1581,SBT4050,1,5,3.63842,-0.893,3684.232,24.2,
1581,SBT4050,1,5,3.586544,-3.5888,3687.689,23.8,
1581,SBT4050,1,5,3.65095,0.371,3729.184,23.6,
1581,SBT4050,1,5,3.645398,0.35094,3765.22,23.6,
1581,SBT4050,1,5,3.27702,-12.777,3801.953,23.5,
1581,SBT4050,1,5,3.48995,-2.909,3857.465,23.9,
1581,SBT4050,1,5,3.56043,-2.5719,3864.016,23.6,
1581,SBT4050,1,5,3.4257,-7.441,3884.788,23.1,
1581,SBT4050,1,5,3.60561,-0.07399,3913.359,23.1,
1581,SBT4050,1,5,3.25706,-11.08,3944.15,22.7,
1581,SBT4050,1,5,3.22891,-12.277,3994.295,23.3,
1581,SBT4050,1,5,3.62885,4.0001,4031.717,23.4,
1581,SBT4050,1,5,3.56905,0.022996,4041.884,23.1,
1581,SBT4050,1,5,3.64783,3.4439,4076.07,23,
1581,SBT4050,1,5,3.46295,-4.4664,4080.509,22.7,
1581,SBT4050,1,5,3.56818,-0.029996,4099.205,22.5,
1581,SBT4050,1,5,3.58466,-0.05899,4099.69,22,
1581,SBT4050,1,5,3.43332,-3.9952,4120.034,21.8,
1581,SBT4050,1,5,3.349028,-7.821,4127.733,21.7,
1581,SBT4050,1,5,3.62739,4.0004,4167.354,21.8,
1581,SBT4050,1,5,3.51502,1.2449,4199.373,21.7,
1581,SBT4050,1,5,3.05833,-14.478,4226.775,22,
1581,SBT4050,1,5,3.24836,-7.777,4266.703,22.5,
1581,SBT4050,1,5,3.52697,-0.034999,4284.681,22.8,
1581,SBT4050,1,5,3.53833,-0.07198,4285.209,22.4,
1581,SBT4050,1,5,3.20069,-8.277,4330.637,22.3,
1581,SBT4050,1,5,3.51104,-0.07599,4345.652,22.5,
1581,SBT4050,1,5,3.03151,-14.309,4362.414,22.2,
1581,SBT4050,1,5,3.1901,-8.612,4418.099,23.2,
1581,SBT4050,1,5,3.54805,2.9836,4445.554,23.3,
1581,SBT4050,1,5,3.44218,-0.17799,4476.17,23.2,
1581,SBT4050,1,5,3.39173,-2.2389,4491.158,22.9,
1581,SBT4050,1,5,3.44548,-0.752,4502.263,22.6,
1581,SBT4050,1,5,3.42116,-4.3353,4503.384,22.4,
1581,SBT4050,1,5,3.64696,3.9995,4517.359,22.4,
1581,SBT4050,1,5,3.5609,1.4709,4522.597,22,
1581,SBT4050,1,5,3.52498,-0.043003,4522.692,21.7,
1581,SBT4050,1,5,3.36142,-1.8651,4570.781,21.8,
1581,SBT4050,1,5,3.60705,4.0004,4585.135,22.2,
1581,SBT4050,1,5,3.28358,-6.241,4593.629,21.9,
1581,SBT4050,1,5,3.63133,3.9998,4604.269,21.8,
1581,SBT4050,1,5,3.22916,-5.803,4637.437,21.8,
1581,SBT4050,1,5,3.491052,0.08599,4642.955,21.9,
1581,SBT4050,1,5,3.42967,-1.2942,4647.196,21.6,
1581,SBT4050,1,5,3.61806,3.9998,4652.908,21.5,
1581,SBT4050,1,5,3.5507,1.2438,4656.183,21.3,
1581,SBT4050,1,5,2.855,-14.501,4693.372,21.2,
1581,SBT4050,1,5,3.34488,-3.245,4725.927,22.5,
1581,SBT4050,1,5,3.47871,-0.41494,4727.95,22.4,
1581,SBT4050,1,5,3.62135,3.9999,4733.029,22,
1581,SBT4050,1,5,3.20209,-9.136,4739.896,21.9,
1581,SBT4050,1,5,3.60367,3.9999,4779.166,22.2,
1581,SBT4050,1,5,3.490268,-0.01799,4780.741,22.1,
1581,SBT4050,1,5,3.60739,4.0001,4795.942,21.9,
1581,SBT4050,1,5,3.57057,2.7208,4818.133,21.9,
1581,SBT4050,1,5,3.20132,-6.369,4841.632,22,
1581,SBT4050,1,5,3.49822,1.9141,4886.335,22.7,
1581,SBT4050,1,5,3.49788,-0.038995,4886.348,22.5,
1581,SBT4050,1,5,3.500668,-0.03,4888.126,22.2,
1581,SBT4050,1,5,3.48496,-0.035,4906.433,22.1,
1581,SBT4050,1,5,3.01258,-11.44,4918.357,21.8,
1581,SBT4050,1,5,3.447486,0.28296,4951.559,22.2,
1581,SBT4050,1,5,3.462086,1.1856,4971.842,22.3,
1581,SBT4050,1,5,3.57292,3.0129,4973.136,22,
1581,SBT4050,1,5,3.55745,4.0004,5005.567,22.1,
1581,SBT4050,1,5,3.46728,-0.27801,5006.455,22.1,
1581,SBT4050,1,5,3.48894,0.365,5012.857,21.8,
1581,SBT4050,1,5,3.467708,-0.021998,5012.988,21.5,
1581,SBT4050,1,5,3.46648,-0.031998,5013.105,21.3,
1581,SBT4050,1,5,3.467224,-0.017986,5013.242,21.1,
1581,SBT4050,1,5,3.46707,-0.015,5013.375,20.9,
1581,SBT4050,1,5,3.46672,-0.040999,5013.513,20.8,
1581,SBT4050,1,5,3.46747,-0.012999,5013.639,20.7,
1581,SBT4050,1,5,3.46796,-0.009999,5013.746,20.5,
1581,SBT4050,1,5,3.46762,-0.024997,5013.867,20.5,
1581,SBT4050,1,5,3.46826,-0.013999,5013.985,20.3,
1581,SBT4050,1,5,3.468374,-0.016,5014.088,20.3,
1581,SBT4050,1,5,3.468906,-0.007999,5014.184,,
1581,SBT4050,1,5,3.46953,0,5014.184,20.2,
1581,SBT4050,1,5,3.46989,0,5014.184,20.1,
1581,SBT4050,1,5,3.47043,0,5014.184,20.1,
1581,SBT4050,1,5,3.47069,0,5014.184,20.1,
1581,SBT4050,1,5,3.47075,0,5014.184,20.1,
1581,SBT4050,1,5,3.47109,0,5014.184,20,
1581,SBT4050,1,5,3.47099,0,5014.184,20,
1581,SBT4050,1,5,3.47132,0,5014.184,20,
1581,SBT4050,1,5,3.47157,0,5014.184,20,
1581,SBT4050,1,5,3.47169,0,5014.184,20,
1581,SBT4050,1,5,3.63097,4.0009,5014.184,20,
1581,SBT4050,1,5,3.6618,3.9996,5014.184,20.1,
1581,SBT4050,1,5,3.68036,4.0004,5014.184,20.3,
1581,SBT4050,1,5,3.69798,4,5014.184,20.5,
1581,SBT4050,1,5,3.71462,3.9995,5014.184,20.6,
1581,SBT4050,1,5,3.73031,3.9998,5014.184,20.8,
1581,SBT4050,1,5,3.74532,3.9998,5014.184,20.9,
1581,SBT4050,1,5,3.75964,4.0001,5014.184,21,
1581,SBT4050,1,5,3.77129,3.9999,5014.184,21,
1581,SBT4050,1,5,3.78082,3.9997,5014.184,21.2,
1581,SBT4050,1,5,3.789642,3.9998,5014.184,21.2,
1581,SBT4050,1,5,3.798094,3.9997,5014.184,21.3,
1581,SBT4050,1,5,3.807878,3.9998,5014.184,21.4,
1581,SBT4050,1,5,3.818172,4.0003,5014.184,21.3,
1581,SBT4050,1,5,3.82941,4.0001,5014.184,21.5,
1581,SBT4050,1,5,3.84094,3.9998,5014.184,21.5,
1581,SBT4050,1,5,3.85283,4.0001,5014.184,21.5,
1581,SBT4050,1,5,3.86506,4,5014.184,21.7,
1581,SBT4050,1,5,3.87753,4,5014.184,21.8,
1581,SBT4050,1,5,3.89055,3.9994,5014.184,21.8,
1581,SBT4050,1,5,3.903404,4,5014.184,21.9,
1581,SBT4050,1,5,3.91634,4,5014.184,21.9,
1581,SBT4050,1,5,3.92963,4.0001,5014.184,22,
1581,SBT4050,1,5,3.94324,4.0003,5014.184,22,
1581,SBT4050,1,5,3.95688,3.9998,5014.184,22,
1581,SBT4050,1,5,3.97093,3.9997,5014.184,22.1,
1581,SBT4050,1,5,3.98471,4.0004,5014.184,22.1,
1581,SBT4050,1,5,3.99874,4,5014.184,21.9,
1581,SBT4050,1,5,4.01292,3.9995,5014.184,22.2,
1581,SBT4050,1,5,4.02709,3.9998,5014.184,22.3,
1581,SBT4050,1,5,4.04125,3.9998,5014.184,22.3,
1581,SBT4050,1,5,4.05494,4.0003,5014.184,22.4,
1581,SBT4050,1,5,4.06859,4.0001,5014.184,22.3,
1581,SBT4050,1,5,4.082542,4,5014.184,22.4,
1581,SBT4050,1,5,4.0966,4.0001,5014.184,22.4,
1581,SBT4050,1,5,4.11102,4.0001,5014.184,22.5,
1581,SBT4050,1,5,4.12578,3.9998,5014.184,22.5,
1581,SBT4050,1,5,4.14078,4.0001,5014.184,22.4,
1581,SBT4050,1,5,4.15644,3.9992,5014.184,22.5,
1581,SBT4050,1,5,4.17218,4,5014.184,22.5,
1581,SBT4050,1,5,4.18931,3.9996,5014.184,22.5,
1581,SBT4050,1,5,4.200154,3.8345,5014.184,22.6,
1581,SBT4050,1,5,4.20023,3.4673,5014.184,22.6,
1581,SBT4050,1,5,4.20013,3.1721,5014.184,22.5,
1581,SBT4050,1,5,4.20002,2.9125,5014.184,22.5,
1581,SBT4050,1,5,4.2,2.6842,5014.184,22.3,
1581,SBT4050,1,5,4.20002,2.4808,5014.184,22.2,
1581,SBT4050,1,5,4.200154,2.3004,5014.184,22.1,
1581,SBT4050,1,5,4.200154,2.1402,5014.184,22,
1581,SBT4050,1,5,4.20019,1.9981,5014.184,21.8,
1581,SBT4050,1,5,4.20038,1.8676,5014.184,21.7,
1581,SBT4050,1,5,4.20007,1.7511,5014.184,21.6,
1581,SBT4050,1,5,4.20007,1.6439,5014.184,21.4,
1581,SBT4050,1,5,4.2002,1.5505,5014.184,21.4,
1581,SBT4050,1,5,4.20009,1.4619,5014.184,21.2,
1581,SBT4050,1,5,4.20009,1.3827,5014.184,21.2,
1581,SBT4050,1,5,4.20007,1.3067,5014.184,21,
1581,SBT4050,1,5,4.20009,1.2403,5014.184,21,
1581,SBT4050,1,5,4.20024,1.1784,5014.184,20.9,
1581,SBT4050,1,5,4.20006,1.1193,5014.184,20.8,
1581,SBT4050,1,5,4.20007,1.0644,5014.184,20.7,
1581,SBT4050,1,5,4.200166,1.0159,5014.184,20.7,
1581,SBT4050,1,5,4.20008,0.967,5014.184,20.6,
1581,SBT4050,1,5,4.200166,0.9234,5014.184,20.6,
1581,SBT4050,1,5,4.20009,0.8826,5014.184,20.6,
1581,SBT4050,1,5,4.20007,0.8416,5014.184,20.5,
1581,SBT4050,1,5,4.20001,0.8065,5014.184,20.5,
1581,SBT4050,1,5,4.19993,0.7727,5014.184,20.4,
1581,SBT4050,1,5,4.20021,0.7419,5014.184,20.4,
1581,SBT4050,1,5,4.20007,0.7112,5014.184,20.4,
1581,SBT4050,1,5,4.19972,0.685,5014.184,20.4,
1581,SBT4050,1,5,4.20003,0.6564,5014.184,20.4,
1581,SBT4050,1,5,4.20018,0.6317,5014.184,20.4,
1581,SBT4050,1,5,4.20009,0.609,5014.184,20.3,
1581,SBT4050,1,5,4.19989,0.5855,5014.184,20.3,
1581,SBT4050,1,5,4.20024,0.564,5014.184,20.2,
1581,SBT4050,1,5,4.19996,0.5439,5014.184,20.2,
1581,SBT4050,1,5,4.200142,0.5227,5014.184,20.2,
1581,SBT4050,1,5,4.20008,0.5066,5014.184,20.2,
1581,SBT4050,1,5,4.2002,0.4881,5014.184,20.2,
1581,SBT4050,1,5,4.20006,0.47204,5014.184,20.2,
1581,SBT4050,1,5,4.20013,0.45651,5014.184,20.2,
1581,SBT4050,1,5,4.19993,0.44194,5014.184,20.1,
1581,SBT4050,1,5,4.20008,0.42813,5014.184,20.2,
1581,SBT4050,1,5,4.20027,0.41334,5014.184,20.2,
1581,SBT4050,1,5,4.19995,0.39937,5014.184,20.1,
1581,SBT4050,1,5,4.199832,0.38778,5014.184,20.1,
1581,SBT4050,1,5,4.200142,0.37559,5014.184,20.2,
1581,SBT4050,1,5,4.19998,0.36456,5014.184,20.1,
1581,SBT4050,1,5,4.200142,0.35268,5014.184,20.1,
1581,SBT4050,1,5,4.19996,0.34315,5014.184,20.1,
1581,SBT4050,1,5,4.19998,0.33273,5014.184,20.1,
1581,SBT4050,1,5,4.20025,0.32276,5014.184,20.1,
1581,SBT4050,1,5,4.20003,0.31455,5014.184,20.1,
1581,SBT4050,1,5,4.20001,0.30501,5014.184,20.1,
1581,SBT4050,1,5,4.19989,0.29603,5014.184,20.1,
1581,SBT4050,1,5,4.19987,0.28919,5014.184,20.1,
1581,SBT4050,1,5,4.20019,0.28186,5014.184,20,
1581,SBT4050,1,5,4.200118,0.27406,5014.184,20.1,
1581,SBT4050,1,5,4.20005,0.26724,5014.184,20.1,
1581,SBT4050,1,5,4.200166,0.25947,5014.184,20.1,
1581,SBT4050,1,5,4.20011,0.25235,5014.184,20.1,
1581,SBT4050,1,5,4.20009,0.24622,5014.184,20,
1581,SBT4050,1,5,4.200118,0.23978,5014.184,20.1,
1581,SBT4050,1,5,4.20008,0.23458,5014.184,20,
1581,SBT4050,1,5,4.200142,0.22949,5014.184,20.1,
1581,SBT4050,1,5,4.200142,0.22304,5014.184,20.1,
1581,SBT4050,1,5,4.1999,0.21852,5014.184,20.1,
1581,SBT4050,1,5,4.19993,0.21309,5014.184,20.1,
1581,SBT4050,1,5,4.20001,0.20853,5014.184,20.1,
1581,SBT4050,1,5,4.19988,0.20404,5014.184,20.1,
1581,SBT4050,1,5,4.20011,0.19897,5014.184,20.1,
1581,SBT4050,1,5,4.19995,0.19554,5014.184,20.1,
1581,SBT4050,1,5,4.20001,0.19144,5014.184,20.1,
1581,SBT4050,1,5,4.200166,0.18768,5014.184,20.1,
1581,SBT4050,1,5,4.20032,0.18255,5014.184,20.1,
1581,SBT4050,1,5,4.19998,0.17735,5014.184,20,
1581,SBT4050,1,5,4.20006,0.17403,5014.184,20,
1581,SBT4050,1,5,4.200154,0.17053,5014.184,20,
1581,SBT4050,1,5,4.199808,0.16662,5014.184,20.1,
1581,SBT4050,1,5,4.20013,0.16416,5014.184,20,
1581,SBT4050,1,5,4.20005,0.16117,5014.184,20.1,
1581,SBT4050,1,5,4.2,0.15761,5014.184,20.1,
1581,SBT4050,1,5,4.20006,0.15464,5014.184,20.1,
1581,SBT4050,1,5,4.19975,0.15231,5014.184,20.1,
1581,SBT4050,1,5,4.2002,0.14826,5014.184,20.1,
1581,SBT4050,1,5,4.20002,0.14676,5014.184,20.1,
1581,SBT4050,1,5,4.200142,0.14348,5014.184,20,
1581,SBT4050,1,5,4.20011,0.14084,5014.184,20.2,
1581,SBT4050,1,5,4.200154,0.13904,5014.184,20.1,
1581,SBT4050,1,5,4.19996,0.1351,5014.184,20.1,
1581,SBT4050,1,5,4.2002,0.13307,5014.184,20.1,
1581,SBT4050,1,5,4.19999,0.13087,5014.184,20.1,
1581,SBT4050,1,5,4.19999,0.12895,5014.184,20,
1581,SBT4050,1,5,4.20003,0.12619,5014.184,20,
1581,SBT4050,1,5,4.2,0.12425,5014.184,20,
1581,SBT4050,1,5,4.19976,0.12233,5014.184,20.1,
1581,SBT4050,1,5,4.19995,0.12094,5014.184,20,
1581,SBT4050,1,5,4.20013,0.1185,5014.184,20.1,
1581,SBT4050,1,5,4.200154,0.11527,5014.184,20.1,
1581,SBT4050,1,5,4.199844,0.1141,5014.184,20,
1581,SBT4050,1,5,4.20003,0.1123,5014.184,20,
1581,SBT4050,1,5,4.19998,0.11026,5014.184,20,
1581,SBT4050,1,5,4.20003,0.109,5014.184,20,
1581,SBT4050,1,5,4.19996,0.1071,5014.184,20,
1581,SBT4050,1,5,4.20002,0.10488,5014.184,20.1,
1581,SBT4050,1,5,4.20006,0.10362,5014.184,20.1,
1581,SBT4050,1,5,4.19978,0.10153,5014.184,20.1,
1581,SBT4050,1,5,4.20005,0.10053,5014.184,20,
1581,SBT4050,1,5,4.19402,0,5014.184,20.1,
1581,SBT4050,1,5,4.19246,0,5014.184,20,
1581,SBT4050,1,5,4.19112,0,5014.184,20.1,
1581,SBT4050,1,5,4.18983,0,5014.184,20,
1581,SBT4050,1,5,4.18914,0,5014.184,20.1,
1581,SBT4050,1,5,4.18792,0,5014.184,20,
1581,SBT4050,1,5,4.18737,0,5014.184,20,
1581,SBT4050,1,5,4.18651,0,5014.184,20.1,
1581,SBT4050,1,5,4.1855,0,5014.184,20,
1581,SBT4050,1,5,4.18448,0,5014.184,20,
1581,SBT4050,1,5,4.18406,0,5014.184,20.1,
1581,SBT4050,1,5,4.183218,0,5014.184,20,
1581,SBT4050,1,5,4.18239,0,5014.184,20,
1581,SBT4050,1,5,4.18197,0,5014.184,20.1,
1581,SBT4050,1,5,4.18146,0,5014.184,20.1,
1581,SBT4050,1,5,4.18089,0,5014.184,20,
1581,SBT4050,1,5,4.18033,0,5014.184,20.1,
1581,SBT4050,1,5,4.17964,0,5014.184,20.1,
1581,SBT4050,1,5,4.17903,0,5014.184,20.1,
1581,SBT4050,1,5,4.17833,0,5014.184,20.1,
1581,SBT4050,1,5,4.178024,0,5014.184,20,
1581,SBT4050,1,5,4.17739,0,5014.184,20.1,
1581,SBT4050,1,5,4.1771,0,5014.184,20.1,
1581,SBT4050,1,5,4.176746,0,5014.184,20.1,
1581,SBT4050,1,5,4.17568,0,5014.184,20,
1581,SBT4050,1,5,4.17546,0,5014.184,20.1,
1581,SBT4050,1,5,4.17528,0,5014.184,20,
1581,SBT4050,1,5,4.17475,0,5014.184,20.1,
1581,SBT4050,1,5,4.17441,0,5014.184,20.1,
1581,SBT4050,1,5,4.174,0,5014.184,20.1,
1581,SBT4050,1,5,4.17356,0,5014.184,20.1,
1581,SBT4050,1,5,4.17283,0,5014.184,20,
1581,SBT4050,1,5,4.17258,0,5014.184,20,
1581,SBT4050,1,5,4.172032,0,5014.184,19.9,
1581,SBT4050,1,5,4.17193,0,5014.184,20,
1581,SBT4050,1,5,4.171622,0,5014.184,20,
1581,SBT4050,1,5,4.17121,0,5014.184,20,
1581,SBT4050,1,5,4.17084,0,5014.184,20,
1581,SBT4050,1,5,4.17053,0,5014.184,20,
1581,SBT4050,1,5,4.17007,0,5014.184,20,
1581,SBT4050,1,5,4.169632,0,5014.184,20,
1581,SBT4050,1,5,4.16956,0,5014.184,20,
1581,SBT4050,1,5,4.16907,0,5014.184,20,
1581,SBT4050,1,5,4.16849,0,5014.184,20,
1581,SBT4050,1,5,4.16839,0,5014.184,20,
1581,SBT4050,1,5,4.16808,0,5014.184,20,
1581,SBT4050,1,5,4.16791,0,5014.184,20,
1581,SBT4050,1,5,4.16757,0,5014.184,20,
1581,SBT4050,1,5,4.16707,0,5014.184,20,
1581,SBT4050,1,5,4.166974,0,5014.184,20,
1581,SBT4050,1,5,4.166438,0,5014.184,20,
1581,SBT4050,1,5,4.166324,0,5014.184,20,
1581,SBT4050,1,5,4.166104,0,5014.184,20,
1581,SBT4050,1,5,4.165882,0,5014.184,19.9,
1581,SBT4050,1,5,4.165698,0,5014.184,20,
1581,SBT4050,1,5,4.16509,0,5014.184,19.9,
1581,SBT4050,1,5,4.16488,0,5014.184,20,
1581,SBT4050,1,5,4.16482,0,5014.184,20,
1581,SBT4050,1,5,4.16424,0,5014.184,20,
1581,SBT4050,1,5,4.16419,0,5014.184,20.1,
1581,SBT4050,1,5,4.16405,0,5014.184,20.1,
1581,SBT4050,1,5,4.16356,0,5014.184,20,
1581,SBT4050,1,5,4.16344,0,5014.184,20,
1581,SBT4050,1,5,4.163,0,5014.184,20.1,
1581,SBT4050,1,5,4.16281,0,5014.184,20,
1581,SBT4050,1,5,4.16261,0,5014.184,20,
1581,SBT4050,1,5,4.1625,0,5014.184,20,
1581,SBT4050,1,5,4.16207,0,5014.184,20,
1581,SBT4050,1,5,4.16167,0,5014.184,20,
1581,SBT4050,1,5,4.1618,0,5014.184,20,
1581,SBT4050,1,5,4.16161,0,5014.184,20,
1581,SBT4050,1,5,4.16119,0,5014.184,20,
1581,SBT4050,1,5,4.16109,0,5014.184,20,
1581,SBT4050,1,5,4.161084,0,5014.184,20,
1581,SBT4050,1,5,4.16074,0,5014.184,20,
1581,SBT4050,1,5,4.16049,0,5014.184,20,
1581,SBT4050,1,5,4.1601,0,5014.184,20,
1581,SBT4050,1,5,4.16026,0,5014.184,20,
1581,SBT4050,1,5,4.16008,0,5014.184,19.9,
1581,SBT4050,1,5,4.159788,0,5014.184,19.9,
1581,SBT4050,1,5,4.15967,0,5014.184,20,
1581,SBT4050,1,5,4.15936,0,5014.184,20,
1581,SBT4050,1,5,4.15886,0,5014.184,20,
1581,SBT4050,1,5,4.15886,0,5014.184,20,
1581,SBT4050,1,5,4.15849,0,5014.184,20,
1581,SBT4050,1,5,4.15882,0,5014.184,20.1,
1581,SBT4050,1,5,4.158226,0,5014.184,20.1,
1581,SBT4050,1,5,4.15828,0,5014.184,20.1,
1581,SBT4050,1,5,4.158092,0,5014.184,20,
1581,SBT4050,1,5,4.15784,0,5014.184,20,
1581,SBT4050,1,5,4.157718,0,5014.184,20,
1581,SBT4050,1,5,4.15754,0,5014.184,20,
1581,SBT4050,1,5,4.15741,0,5014.184,20.1,
1581,SBT4050,1,5,4.15718,0,5014.184,20.2,
1581,SBT4050,1,5,4.15698,0,5014.184,20.1,
1581,SBT4050,1,5,4.15677,0,5014.184,20.1,
1581,SBT4050,1,5,4.15663,0,5014.184,20.1,
1581,SBT4050,1,5,4.15642,0,5014.184,20.1,
1581,SBT4050,1,5,4.15637,0,5014.184,20.1,
1581,SBT4050,1,5,4.15633,0,5014.184,20.2,
1581,SBT4050,1,5,4.156066,0,5014.184,20.1,
1581,SBT4050,1,5,4.155758,0,5014.184,20.1,
1581,SBT4050,1,5,4.155604,0,5014.184,20.1,
1581,SBT4050,1,5,4.15551,0,5014.184,20.2,
1581,SBT4050,1,5,4.15567,0,5014.184,20.1,
1581,SBT4050,1,5,4.15524,0,5014.184,20.1,
1581,SBT4050,1,5,4.15515,0,5014.184,20.1,
1581,SBT4050,1,5,4.15507,0,5014.184,20.1,
1581,SBT4050,1,5,4.15481,0,5014.184,20.1,
1581,SBT4050,1,5,4.15447,0,5014.184,20.1,
1581,SBT4050,1,5,4.15457,0,5014.184,20.1,
1581,SBT4050,1,5,4.15456,0,5014.184,20.1,
1581,SBT4050,1,5,4.15406,0,5014.184,20,
1581,SBT4050,1,5,4.154118,0,5014.184,20.2,
1581,SBT4050,1,5,4.15394,0,5014.184,20.1,
1581,SBT4050,1,5,4.15387,0,5014.184,20.2,
1581,SBT4050,1,5,4.15367,0,5014.184,20.1,
1581,SBT4050,1,5,4.15342,0,5014.184,20.1,
1581,SBT4050,1,5,4.15349,0,5014.184,20.1,
1581,SBT4050,1,5,4.1535,0,5014.184,20.1,
1581,SBT4050,1,5,4.153,0,5014.184,20.1,
1581,SBT4050,1,5,4.15275,0,5014.184,20,
1581,SBT4050,1,5,4.152872,0,5014.184,20.2,
1581,SBT4050,1,5,4.15277,0,5014.184,20.1,
1581,SBT4050,1,5,4.15283,0,5014.184,20.1,
1581,SBT4050,1,5,4.15259,0,5014.184,20.1,
1581,SBT4050,1,5,4.15277,0,5014.184,20.1,
1581,SBT4050,1,5,4.15204,0,5014.184,20.1,
1581,SBT4050,1,5,4.16072,0.227,5014.193,20.1,
1581,SBT4050,1,5,4.12768,-0.8862,5014.344,20.1,
1581,SBT4050,1,5,4.171162,2.9162,5048.002,20.3,
1581,SBT4050,1,5,3.75141,-9.603,5083.556,20.5,
1581,SBT4050,1,5,4.07538,1.089,5113.298,21,
1581,SBT4050,1,5,4.01039,1.3581,5163.943,21.4,
1581,SBT4050,1,5,4.09362,3.9287,5186.724,21.7,
1581,SBT4050,1,5,4.0223,0.001,5186.869,21.6,
1581,SBT4050,1,5,3.99661,1.9668,5235.191,21.8,
1581,SBT4050,1,5,3.99716,-0.009999,5245.08,22.1,
1581,SBT4050,1,5,3.55601,-14.5,5267.034,21.8,
1581,SBT4050,1,5,3.59167,-9.749,5342.518,22.5,
1581,SBT4050,1,5,4.02452,4.0001,5360.518,23,
1581,SBT4050,1,5,3.7789,-6.33,5363.748,22.7,
1581,SBT4050,1,5,3.7402,-4.3045,5415.723,22.8,
1581,SBT4050,1,5,3.99486,3.9998,5432.02,22.7,
1581,SBT4050,1,5,3.82595,-0.8799,5468.69,22.6,
1581,SBT4050,1,5,3.82489,-0.588,5494.341,22.6,
1581,SBT4050,1,5,3.96197,4.0002,5513.901,22.4,
1581,SBT4050,1,5,3.779048,-3.6578,5517.451,22.2,
1581,SBT4050,1,5,3.7025,-4.3381,5554.127,21.9,
1581,SBT4050,1,5,3.83697,-0.027001,5573.879,22,
1581,SBT4050,1,5,3.85809,-0.026998,5574.432,21.9,
1581,SBT4050,1,5,3.60599,-7.255,5604.791,21.7,
1581,SBT4050,1,5,3.85658,3.0474,5634.714,21.7,
1581,SBT4050,1,5,3.70331,-1.5127,5681.582,22,
1581,SBT4050,1,5,3.48324,-8.913,5725.931,22.2,
1581,SBT4050,1,5,3.723808,0.23801,5759.227,22.7,
1581,SBT4050,1,5,3.796278,-0.06801,5759.418,22.6,
1581,SBT4050,1,5,3.4342,-10.323,5805.45,22.5,
1581,SBT4050,1,5,3.7956,2.5297,5822.573,22.8,
1581,SBT4050,1,5,3.78255,-0.055,5822.927,22.5,
1581,SBT4050,1,5,3.41261,-10.205,5893.834,22.9,
1581,SBT4050,1,5,3.742672,3.1745,5941.543,23.4,
1581,SBT4050,1,5,3.73865,-0.074,5941.765,23.3,
1581,SBT4050,1,5,3.52117,-5.79,5985.133,23.1,
1581,SBT4050,1,5,3.68963,0.9698,6015.404,23.2,
1581,SBT4050,1,5,3.49867,-5.835,6046.269,22.9,
1581,SBT4050,1,5,3.54654,-3.9765,6074.082,22.9,
1581,SBT4050,1,5,3.54708,-3.625,6099.738,22.8,
1581,SBT4050,1,5,3.68525,-0.05099,6102.173,22.6,
1581,SBT4050,1,5,3.52616,-4.1499,6130.066,22.3,
1581,SBT4050,1,5,3.6013,-0.26098,6162.708,22.2,
1581,SBT4050,1,5,3.66066,-0.064,6163.099,22.1,
1581,SBT4050,1,5,3.464634,-7.163,6173.219,21.8,
1581,SBT4050,1,5,3.43252,-7.657,6207.594,21.8,
1581,SBT4050,1,5,3.343845,-8.435,6256.55,21.9,
1581,SBT4050,1,5,3.29578,-12.187,6282.8,22.2,
1581,SBT4050,1,5,3.45932,-4.9247,6332.456,22.6,
1581,SBT4050,1,5,3.71979,4.0001,6351.19,22.7,
1581,SBT4050,1,5,3.38999,-9.224,6356.8,22.3,
1581,SBT4050,1,5,3.60671,0.134,6404.138,22.8,
1581,SBT4050,1,5,3.61417,-0.06798,6414.194,22.6,
1581,SBT4050,1,5,3.20734,-11.5,6458.919,22.4,
1581,SBT4050,1,5,3.35332,-4.3778,6526.896,23.2,
1581,SBT4050,1,5,3.58118,-0.06299,6531.629,23.4,
1581,SBT4050,1,5,3.2005,-12.851,6552.645,23,
1581,SBT4050,1,5,3.39032,-4.6389,6596.967,23.2,
1581,SBT4050,1,5,3.37369,-7.952,6607.067,23,
1581,SBT4050,1,5,3.38239,-5.018,6649.649,23,
1581,SBT4050,1,5,3.373616,-5.159,6675.162,22.8,
1581,SBT4050,1,5,3.5415,-0.06401,6691.537,22.7,
1581,SBT4050,1,5,3.37368,-5.503,6701.655,22.4,
1581,SBT4050,1,5,3.34694,-4.5865,6739.442,22.4,
1581,SBT4050,1,5,3.517218,-0.063,6752.749,22.2,
1581,SBT4050,1,5,3.5333,-0.075,6753.555,22,
1581,SBT4050,1,5,3.42466,-1.0369,6792.703,21.9,
1581,SBT4050,1,5,3.3451,-5.19,6816.75,22.2,
1581,SBT4050,1,5,3.538678,3.0427,6864.911,22.6,
1581,SBT4050,1,5,3.33516,-1.0108,6920.077,23,
1581,SBT4050,1,5,3.57859,4.0007,6938.456,23.5,
1581,SBT4050,1,5,3.49484,-0.08599,6938.836,23,
1581,SBT4050,1,5,3.51224,3.9999,6990.217,23.3,
1581,SBT4050,1,5,3.59404,4.0004,6999.788,23.6,
1581,SBT4050,1,5,3.3363,-5.38,7000.967,23.1,
1581,SBT4050,1,5,3.190632,-4.9848,7070.282,23.7,
1581,SBT4050,1,5,3.59244,4.0005,7083.946,23.9,
1581,SBT4050,1,5,3.48782,0.038003,7084.033,23.4,
1581,SBT4050,1,5,3.10791,-6.512,7134.531,23.6,
1581,SBT4050,1,5,3.56595,4.0002,7146.179,23.5,
1581,SBT4050,1,5,3.47551,1.9338,7163.42,23.2,
1581,SBT4050,1,5,3.52341,1.6468,7165.771,22.8,
1581,SBT4050,1,5,3.53365,1.3259,7167.584,22.4,
1581,SBT4050,1,5,3.476364,-0.26201,7167.978,22.2,
1581,SBT4050,1,5,3.24862,-3.6819,7195.665,22,
1581,SBT4050,1,5,3.44802,0.9791,7220.581,22.1,
1581,SBT4050,1,5,3.433144,-0.030996,7220.807,21.9,
1581,SBT4050,1,5,3.4415,-0.032994,7221.082,21.6,
1581,SBT4050,1,5,3.445452,-0.041001,7221.348,21.4,
1581,SBT4050,1,5,3.44877,-0.030002,7221.599,21.1,
1581,SBT4050,1,5,3.45059,-0.027999,7221.855,21.1,
1581,SBT4050,1,5,3.45212,-0.028003,7222.118,20.9,
1581,SBT4050,1,5,3.45314,-0.032999,7222.384,20.7,
1581,SBT4050,1,5,3.453996,-0.035993,7222.636,20.6,
1581,SBT4050,1,5,3.4555,-0.026998,7222.877,20.5,
1581,SBT4050,1,5,3.456086,-0.026002,7223.101,20.5,
1581,SBT4050,1,5,3.45711,-0.014999,7223.295,20.4,
1581,SBT4050,1,5,3.45713,-0.030995,7223.507,20.3,
1581,SBT4050,1,5,3.45776,-0.028,7223.716,20.4,
1581,SBT4050,1,5,3.45812,-0.028996,7223.916,20.2,
1581,SBT4050,1,5,3.45841,-0.025997,7224.115,20.3,
1581,SBT4050,1,5,3.459,-0.026998,7224.307,20.2,
1581,SBT4050,1,5,3.45935,-0.021001,7224.523,20.2,
1581,SBT4050,1,5,3.46059,0,7224.689,20.1,
1581,SBT4050,1,5,3.46139,0,7224.689,20.1,
1581,SBT4050,1,5,3.462118,0,7224.689,20.1,
1581,SBT4050,1,5,3.46263,0,7224.689,20.1,
1581,SBT4050,1,5,3.46276,0,7224.689,20.1,
1581,SBT4050,1,5,3.46357,0,7224.689,20.1,
1581,SBT4050,1,5,3.46348,0,7224.689,20.1,
1581,SBT4050,1,5,3.464284,0,7224.689,20.1,
1581,SBT4050,1,5,3.46446,0,7224.689,20.1,
1581,SBT4050,1,5,3.46466,0,7224.689,20,
1581,SBT4050,1,5,3.465042,0,7224.689,20.1,
1581,SBT4050,1,5,3.46545,-0.0001,7224.689,,