File: Dataset/AANDCNet/cell1/cycle_14/Test1534.csv
Test:,1534,,,,,,,
Start Time:,7/17/2021 1:39 PM,,,,,,,
End Time:,7/17/2021 3:45 PM,,,,,,,
Test,Rack,Shelf,Position,Voltage (V),Current (A),Discharge Capacity (mAh),TC_1 (C),
1534,SBT4050,1,4,4.14333,0,0,19.8,
1534,SBT4050,1,4,4.14346,0,0,19.8,
1534,SBT4050,1,4,4.143384,0,0,19.8,
1534,SBT4050,1,4,4.14304,0,0,19.8,
1534,SBT4050,1,4,4.14293,0,0,19.8,
1534,SBT4050,1,4,4.14326,0,0,19.8,
1534,SBT4050,1,4,4.14296,0,0,19.8,
1534,SBT4050,1,4,4.1431,0,0,19.8,
1534,SBT4050,1,4,4.1432,0,0,19.8,
1534,SBT4050,1,4,4.14322,0,0,19.8,
1534,SBT4050,1,4,4.14329,0,0,19.8,
1534,SBT4050,1,4,4.14324,0,0,19.8,
1534,SBT4050,1,4,4.14315,0,0,19.8,
1534,SBT4050,1,4,4.14329,0,0,19.8,
1534,SBT4050,1,4,4.14313,0,0,19.8,
1534,SBT4050,1,4,4.14304,0,0,19.8,
1534,SBT4050,1,4,4.143312,0,0,19.8,
1534,SBT4050,1,4,4.14293,0,0,19.9,
1534,SBT4050,1,4,4.14305,0,0,19.9,
1534,SBT4050,1,4,4.14335,0,0,19.9,
1534,SBT4050,1,4,4.14313,0,0,19.9,
1534,SBT4050,1,4,4.14334,0,0,19.9,
1534,SBT4050,1,4,4.14331,0,0,19.9,
1534,SBT4050,1,4,4.14316,0,0,20,
1534,SBT4050,1,4,4.14295,0,0,20,
1534,SBT4050,1,4,4.14312,0,0,20.1,
1534,SBT4050,1,4,4.14317,0,0,20.1,
1534,SBT4050,1,4,4.14313,0,0,20.1,
1534,SBT4050,1,4,4.14312,0,0,20,
1534,SBT4050,1,4,4.14313,0,0,20,
1534,SBT4050,1,4,4.14305,0,0,20,
1534,SBT4050,1,4,4.14296,0,0,20,
1534,SBT4050,1,4,4.142866,0,0,20,
1534,SBT4050,1,4,4.14297,0,0,20,
1534,SBT4050,1,4,4.14293,0,0,20,
1534,SBT4050,1,4,4.14306,0,0,20,
1534,SBT4050,1,4,4.14317,0,0,20,
1534,SBT4050,1,4,4.14325,0,0,20,
1534,SBT4050,1,4,4.14309,0,0,20,
1534,SBT4050,1,4,4.14317,0,0,20,
1534,SBT4050,1,4,4.143566,0,0,20,
1534,SBT4050,1,4,4.14343,0,0,20,
1534,SBT4050,1,4,4.1433,0,0,20,
1534,SBT4050,1,4,4.21528,2.4746,0,20,
1534,SBT4050,1,4,4.20163,1.4736,0,20,
1534,SBT4050,1,4,4.20099,1.2294,0,20,
1534,SBT4050,1,4,4.20088,1.0748,0,20,
1534,SBT4050,1,4,4.2007,0.959,0,20,
1534,SBT4050,1,4,4.200714,0.8692,0,20,
1534,SBT4050,1,4,4.20046,0.7969,0,20,
1534,SBT4050,1,4,4.20069,0.7365,0,20,
1534,SBT4050,1,4,4.20052,0.6847,0,20,
1534,SBT4050,1,4,4.20064,0.6404,0,20,
1534,SBT4050,1,4,4.20036,0.5983,0,20,
1534,SBT4050,1,4,4.20054,0.5649,0,20,
1534,SBT4050,1,4,4.20028,0.5322,0,20,
1534,SBT4050,1,4,4.20046,0.503,0,20,
1534,SBT4050,1,4,4.20049,0.4792,0,20,
1534,SBT4050,1,4,4.20037,0.45483,0,20,
1534,SBT4050,1,4,4.20021,0.43213,0,20.1,
1534,SBT4050,1,4,4.2003,0.41151,0,20.1,
1534,SBT4050,1,4,4.20037,0.39227,0,20.1,
1534,SBT4050,1,4,4.20046,0.37769,0,20,
1534,SBT4050,1,4,4.20038,0.36196,0,20,
1534,SBT4050,1,4,4.20052,0.34648,0,20,
1534,SBT4050,1,4,4.20019,0.33135,0,20,
1534,SBT4050,1,4,4.20065,0.31668,0,20,
1534,SBT4050,1,4,4.200404,0.30425,0,20,
1534,SBT4050,1,4,4.20023,0.29407,0,20,
1534,SBT4050,1,4,4.20027,0.28543,0,20,
1534,SBT4050,1,4,4.20046,0.27495,0,20,
1534,SBT4050,1,4,4.20036,0.26544,0,20,
1534,SBT4050,1,4,4.20025,0.25553,0,20,
1534,SBT4050,1,4,4.20032,0.2462,0,20,
1534,SBT4050,1,4,4.200142,0.23731,0,20,
1534,SBT4050,1,4,4.20039,0.22973,0,20,
1534,SBT4050,1,4,4.200428,0.22271,0,20,
1534,SBT4050,1,4,4.20025,0.21581,0,20,
1534,SBT4050,1,4,4.20052,0.20877,0,20,
1534,SBT4050,1,4,4.20028,0.20223,0,20,
1534,SBT4050,1,4,4.2002,0.19733,0,20,
1534,SBT4050,1,4,4.20044,0.19465,0,20,
1534,SBT4050,1,4,4.20044,0.19094,0,20,
1534,SBT4050,1,4,4.200404,0.18677,0,20,
1534,SBT4050,1,4,4.2007,0.18149,0,20,
1534,SBT4050,1,4,4.20017,0.17606,0,20,
1534,SBT4050,1,4,4.2002,0.1701,0,20,
1534,SBT4050,1,4,4.200118,0.16442,0,20,
1534,SBT4050,1,4,4.20025,0.15893,0,20,
1534,SBT4050,1,4,4.20017,0.15427,0,20,
1534,SBT4050,1,4,4.20027,0.1499,0,20,
1534,SBT4050,1,4,4.20025,0.14542,0,20,
1534,SBT4050,1,4,4.20019,0.14153,0,20,
1534,SBT4050,1,4,4.20027,0.13804,0,20,
1534,SBT4050,1,4,4.20039,0.13485,0,20,
1534,SBT4050,1,4,4.200118,0.13227,0,20,
1534,SBT4050,1,4,4.20006,0.12945,0,20,
1534,SBT4050,1,4,4.2,0.12671,0,20,
1534,SBT4050,1,4,4.20003,0.12324,0,20,
1534,SBT4050,1,4,4.200094,0.12044,0,20,
1534,SBT4050,1,4,4.2,0.11838,0,20,
1534,SBT4050,1,4,4.19996,0.11635,0,20,
1534,SBT4050,1,4,4.20003,0.11387,0,20,
1534,SBT4050,1,4,4.20013,0.11203,0,19.9,
1534,SBT4050,1,4,4.20039,0.1096,0,20,
1534,SBT4050,1,4,4.20007,0.10744,0,20,
1534,SBT4050,1,4,4.200094,0.10552,0,20,
1534,SBT4050,1,4,4.20003,0.10376,0,20,
1534,SBT4050,1,4,4.200082,0.10216,0,20,
1534,SBT4050,1,4,4.19996,0.10034,0,19.9,
1534,SBT4050,1,4,4.19711,0,0,19.9,
1534,SBT4050,1,4,4.196376,0,0,20,
1534,SBT4050,1,4,4.19581,0,0,20,
1534,SBT4050,1,4,4.19548,0,0,19.9,
1534,SBT4050,1,4,4.195212,0,0,19.9,
1534,SBT4050,1,4,4.19508,0,0,19.9,
1534,SBT4050,1,4,4.19456,0,0,19.9,
1534,SBT4050,1,4,4.19459,0,0,19.9,
1534,SBT4050,1,4,4.19442,0,0,20,
1534,SBT4050,1,4,4.19394,0,0,19.9,
1534,SBT4050,1,4,4.193824,0,0,19.9,
1534,SBT4050,1,4,4.19365,0,0,19.9,
1534,SBT4050,1,4,4.19314,0,0,19.9,
1534,SBT4050,1,4,4.19328,0,0,19.9,
1534,SBT4050,1,4,4.19276,0,0,19.9,
1534,SBT4050,1,4,4.19269,0,0,19.9,
1534,SBT4050,1,4,4.19266,0,0,19.9,
1534,SBT4050,1,4,4.19269,0,0,19.9,
1534,SBT4050,1,4,4.19265,0,0,19.9,
1534,SBT4050,1,4,4.19213,0,0,19.9,
1534,SBT4050,1,4,4.19207,0,0,19.9,
1534,SBT4050,1,4,4.1919,0,0,19.9,
1534,SBT4050,1,4,4.19183,0,0,19.9,
1534,SBT4050,1,4,4.1919,0,0,19.9,
1534,SBT4050,1,4,4.19184,0,0,19.9,
1534,SBT4050,1,4,4.19158,0,0,19.9,
1534,SBT4050,1,4,4.19146,0,0,19.9,
1534,SBT4050,1,4,4.19121,0,0,19.9,
1534,SBT4050,1,4,4.19099,0,0,19.9,
1534,SBT4050,1,4,4.19085,0,0,19.9,
1534,SBT4050,1,4,4.19067,0,0,19.9,
1534,SBT4050,1,4,4.19078,0,0,19.9,
1534,SBT4050,1,4,4.19049,0,0,19.9,
1534,SBT4050,1,4,4.19079,0,0,19.9,
1534,SBT4050,1,4,4.19044,0,0,19.9,
1534,SBT4050,1,4,4.1903,0,0,19.9,
1534,SBT4050,1,4,4.190316,0,0,19.9,
1534,SBT4050,1,4,4.19031,0,0,19.9,
1534,SBT4050,1,4,4.18981,0,0,19.9,
1534,SBT4050,1,4,4.19,0,0,19.9,
1534,SBT4050,1,4,4.189676,0,0,19.9,
1534,SBT4050,1,4,4.18962,0,0,19.9,
1534,SBT4050,1,4,4.18978,0,0,19.9,
1534,SBT4050,1,4,4.18939,0,0,19.9,
1534,SBT4050,1,4,4.18953,0,0,19.9,
1534,SBT4050,1,4,4.18959,0,0,19.9,
1534,SBT4050,1,4,4.18943,0,0,19.9,
1534,SBT4050,1,4,4.18956,0,0,19.9,
1534,SBT4050,1,4,4.1893,0,0,19.9,
1534,SBT4050,1,4,4.18961,0,0,19.9,
1534,SBT4050,1,4,4.18915,0,0,19.9,
1534,SBT4050,1,4,4.18883,0,0,19.9,
1534,SBT4050,1,4,4.18918,0,0,19.9,
1534,SBT4050,1,4,4.18886,0,0,19.9,
1534,SBT4050,1,4,4.18894,0,0,19.9,
1534,SBT4050,1,4,4.18881,0,0,19.9,
1534,SBT4050,1,4,4.18872,0,0,19.9,
1534,SBT4050,1,4,4.1888,0,0,19.9,
1534,SBT4050,1,4,4.188632,0,0,19.9,
1534,SBT4050,1,4,4.18842,0,0,19.9,
1534,SBT4050,1,4,4.18856,0,0,19.9,
1534,SBT4050,1,4,4.1885,0,0,19.9,
1534,SBT4050,1,4,4.1885,0,0,19.9,
1534,SBT4050,1,4,4.188516,0,0,19.9,
1534,SBT4050,1,4,4.18843,0,0,19.9,
1534,SBT4050,1,4,4.188174,0,0,19.9,
1534,SBT4050,1,4,4.18827,0,0,19.9,
1534,SBT4050,1,4,4.18816,0,0,19.9,
1534,SBT4050,1,4,4.18805,0,0,19.9,
1534,SBT4050,1,4,4.18826,0,0,19.9,
1534,SBT4050,1,4,4.188126,0,0,19.9,
1534,SBT4050,1,4,4.18821,0,0,19.9,
1534,SBT4050,1,4,4.18812,0,0,19.9,
1534,SBT4050,1,4,4.18779,0,0,19.9,
1534,SBT4050,1,4,4.18788,0,0,19.9,
1534,SBT4050,1,4,4.18783,0,0,19.9,
1534,SBT4050,1,4,4.18771,0,0,19.9,
1534,SBT4050,1,4,4.187728,0,0,19.9,
1534,SBT4050,1,4,4.18762,0,0,19.9,
1534,SBT4050,1,4,4.18746,0,0,19.9,
1534,SBT4050,1,4,4.18779,0,0,19.9,
1534,SBT4050,1,4,4.18773,0,0,19.9,
1534,SBT4050,1,4,4.18754,0,0,19.9,
1534,SBT4050,1,4,4.18748,0,0,19.9,
1534,SBT4050,1,4,4.18728,0,0,19.9,
1534,SBT4050,1,4,4.187366,0,0,19.9,
1534,SBT4050,1,4,4.18713,0,0,19.9,
1534,SBT4050,1,4,4.18715,0,0,19.9,
1534,SBT4050,1,4,4.18714,0,0,19.9,
1534,SBT4050,1,4,4.18737,0,0,19.9,
1534,SBT4050,1,4,4.18726,0,0,19.9,
1534,SBT4050,1,4,4.187036,0,0,19.9,
1534,SBT4050,1,4,4.18706,0,0,19.9,
1534,SBT4050,1,4,4.18708,0,0,19.9,
1534,SBT4050,1,4,4.18726,0,0,19.9,
1534,SBT4050,1,4,4.18703,0,0,19.9,
1534,SBT4050,1,4,4.187122,0,0,19.9,
1534,SBT4050,1,4,4.187008,0,0,19.9,
1534,SBT4050,1,4,4.18683,0,0,19.9,
1534,SBT4050,1,4,4.186764,0,0,19.9,
1534,SBT4050,1,4,4.18655,0,0,20,
1534,SBT4050,1,4,4.18672,0,0,20,
1534,SBT4050,1,4,4.1868,0,0,20,
1534,SBT4050,1,4,4.18656,0,0,20,
1534,SBT4050,1,4,4.18636,0,0,20,
1534,SBT4050,1,4,4.18669,0,0,20,
1534,SBT4050,1,4,4.18649,0,0,19.9,
1534,SBT4050,1,4,4.186448,0,0,19.9,
1534,SBT4050,1,4,4.18652,0,0,20,
1534,SBT4050,1,4,4.18649,0,0,20,
1534,SBT4050,1,4,4.1862,0,0,20,
1534,SBT4050,1,4,4.1863,0,0,19.9,
1534,SBT4050,1,4,4.18646,0,0,19.9,
1534,SBT4050,1,4,4.18653,0,0,19.9,
1534,SBT4050,1,4,4.18646,0,0,20,
1534,SBT4050,1,4,4.18628,0,0,20,
1534,SBT4050,1,4,4.18631,0,0,20,
1534,SBT4050,1,4,4.18614,0,0,20,
1534,SBT4050,1,4,4.18608,0,0,20,
1534,SBT4050,1,4,4.185964,0,0,20,
1534,SBT4050,1,4,4.18621,0,0,20,
1534,SBT4050,1,4,4.1859,0,0,20,
1534,SBT4050,1,4,4.18583,0,0,19.9,
1534,SBT4050,1,4,4.185858,0,0,20,
1534,SBT4050,1,4,4.185858,0,0,20,
1534,SBT4050,1,4,4.18584,0,0,20,
1534,SBT4050,1,4,4.18573,0,0,20,
1534,SBT4050,1,4,4.18566,0,0,20,
1534,SBT4050,1,4,4.18592,0,0,20,
1534,SBT4050,1,4,4.18583,0,0,20,
1534,SBT4050,1,4,4.18597,0,0,20,
1534,SBT4050,1,4,4.1859,0,0,20,
1534,SBT4050,1,4,4.185838,0,0,19.9,
1534,SBT4050,1,4,4.18604,0,0,20,
1534,SBT4050,1,4,4.18581,0,0,19.9,
1534,SBT4050,1,4,4.185522,0,0,19.9,
1534,SBT4050,1,4,4.185658,0,0,19.9,
1534,SBT4050,1,4,4.1855,0,0,19.9,
1534,SBT4050,1,4,4.18563,0,0,19.9,
1534,SBT4050,1,4,4.185664,0,0,19.9,
1534,SBT4050,1,4,4.1853,0,0,19.9,
1534,SBT4050,1,4,4.18541,0,0,19.9,
1534,SBT4050,1,4,4.18548,0,0,19.9,
1534,SBT4050,1,4,4.185414,0,0,19.9,
1534,SBT4050,1,4,4.18525,0,0,19.9,
1534,SBT4050,1,4,4.18519,0,0,19.9,
1534,SBT4050,1,4,4.18544,0,0,19.9,
1534,SBT4050,1,4,4.18552,0,0,19.9,
1534,SBT4050,1,4,4.18524,0,0,19.9,
1534,SBT4050,1,4,4.18526,0,0,19.9,
1534,SBT4050,1,4,4.18545,0,0,19.9,
1534,SBT4050,1,4,4.1852,0,0,19.9,
1534,SBT4050,1,4,4.185068,0,0,19.9,
1534,SBT4050,1,4,4.18531,0,0,19.9,
1534,SBT4050,1,4,4.18501,0,0,19.9,
1534,SBT4050,1,4,4.18497,0,0,19.9,
1534,SBT4050,1,4,4.184944,0,0,19.9,
1534,SBT4050,1,4,4.185338,0,0,19.8,
1534,SBT4050,1,4,4.18507,0,0,19.8,
1534,SBT4050,1,4,4.184996,0,0,19.8,
1534,SBT4050,1,4,4.18497,0,0,19.8,
1534,SBT4050,1,4,4.18494,0,0,19.9,
1534,SBT4050,1,4,4.18521,0,0,19.9,
1534,SBT4050,1,4,4.185232,0,0,19.9,
1534,SBT4050,1,4,4.185128,0,0,19.8,
1534,SBT4050,1,4,4.18506,0,0,19.8,
1534,SBT4050,1,4,4.18469,0,0,19.9,
1534,SBT4050,1,4,4.18491,0,0,19.8,
1534,SBT4050,1,4,4.18465,0,0,19.8,
1534,SBT4050,1,4,4.184662,0,0,19.8,
1534,SBT4050,1,4,4.18481,0,0,19.8,
1534,SBT4050,1,4,4.18458,0,0,19.8,
1534,SBT4050,1,4,4.18451,0,0,19.8,
1534,SBT4050,1,4,4.18485,0,0,19.8,
1534,SBT4050,1,4,4.184622,0,0,19.7,
1534,SBT4050,1,4,4.18453,0,0,19.8,
1534,SBT4050,1,4,4.18454,0,0,19.8,
1534,SBT4050,1,4,4.1847,0,0,19.8,
1534,SBT4050,1,4,4.18456,0,0,19.8,
1534,SBT4050,1,4,4.18476,0,0,19.7,
1534,SBT4050,1,4,4.18461,0,0,19.7,
1534,SBT4050,1,4,4.184508,0,0,19.7,
1534,SBT4050,1,4,4.18447,0,0,19.7,
1534,SBT4050,1,4,4.18462,0,0,19.8,
1534,SBT4050,1,4,4.18456,0,0,19.7,
1534,SBT4050,1,4,4.18439,0,0,19.8,
1534,SBT4050,1,4,4.18413,0,0,19.7,
1534,SBT4050,1,4,4.18437,0,0,19.8,
1534,SBT4050,1,4,4.18464,0,0,19.7,
1534,SBT4050,1,4,4.18429,0,0,19.7,
1534,SBT4050,1,4,4.18423,0,0,19.7,
1534,SBT4050,1,4,4.18423,0,0,19.7,
1534,SBT4050,1,4,4.18431,0,0,19.7,
1534,SBT4050,1,4,4.184,0,0,19.7,
1534,SBT4050,1,4,4.18442,0,0,19.7,
1534,SBT4050,1,4,4.18424,0,0,19.7,
1534,SBT4050,1,4,4.18424,0,0,19.7,
1534,SBT4050,1,4,4.18419,0,0,19.7,
1534,SBT4050,1,4,4.18424,0,0,19.7,
1534,SBT4050,1,4,4.18443,0,0,19.7,
1534,SBT4050,1,4,4.18406,0,0,19.7,
1534,SBT4050,1,4,4.18413,0,0,19.7,
1534,SBT4050,1,4,4.18406,0,0,19.7,
1534,SBT4050,1,4,4.18428,0,0,19.7,
1534,SBT4050,1,4,4.18415,0,0,19.7,
1534,SBT4050,1,4,4.18418,0,0,19.7,
1534,SBT4050,1,4,4.18403,0,0,19.7,
1534,SBT4050,1,4,4.18408,0,0,19.7,
1534,SBT4050,1,4,4.18394,0,0,19.7,
1534,SBT4050,1,4,4.18412,0,0,19.7,
1534,SBT4050,1,4,4.18394,0,0,19.7,
1534,SBT4050,1,4,4.183826,0,0,19.7,
1534,SBT4050,1,4,4.18359,0,0,19.7,
1534,SBT4050,1,4,4.18381,0,0,19.7,
1534,SBT4050,1,4,4.18378,0,0,19.7,
1534,SBT4050,1,4,4.18384,0,0,19.7,
1534,SBT4050,1,4,4.18361,0,0,19.7,
1534,SBT4050,1,4,4.183652,0,0,19.7,
1534,SBT4050,1,4,4.18339,0,0,19.7,
1534,SBT4050,1,4,4.18357,0,0,19.7,
1534,SBT4050,1,4,4.18344,0,0,19.7,
1534,SBT4050,1,4,4.18347,0,0,19.6,
1534,SBT4050,1,4,4.18341,0,0,19.6,
1534,SBT4050,1,4,4.18342,0,0,19.6,
1534,SBT4050,1,4,4.18343,0,0,19.6,
1534,SBT4050,1,4,4.18375,0,0,19.6,
1534,SBT4050,1,4,4.18345,0,0,19.6,
1534,SBT4050,1,4,4.1837,0,0,19.6,
1534,SBT4050,1,4,4.183908,0,0,19.6,
1534,SBT4050,1,4,4.18373,0,0,19.6,
1534,SBT4050,1,4,4.18371,0,0,19.6,
1534,SBT4050,1,4,4.18386,0,0,19.6,
1534,SBT4050,1,4,4.18374,0,0,19.6,
1534,SBT4050,1,4,4.18348,0,0,19.6,
1534,SBT4050,1,4,4.18314,0,0,19.5,
1534,SBT4050,1,4,4.18344,0,0,19.5,
1534,SBT4050,1,4,4.18347,0,0,19.5,
1534,SBT4050,1,4,4.18355,0,0,19.5,
1534,SBT4050,1,4,4.18365,0,0,19.5,
1534,SBT4050,1,4,4.18343,0,0,19.5,
1534,SBT4050,1,4,4.18334,0,0,19.5,
1534,SBT4050,1,4,4.18364,0,0,19.5,
1534,SBT4050,1,4,4.18357,0,0,19.5,
1534,SBT4050,1,4,4.183416,0,0,19.5,
1534,SBT4050,1,4,4.183438,0,0,19.5,
1534,SBT4050,1,4,4.183488,0,0,19.5,
1534,SBT4050,1,4,4.18343,0,0,19.5,
1534,SBT4050,1,4,4.18335,0,0,19.5,
1534,SBT4050,1,4,4.18371,0,0,19.5,
1534,SBT4050,1,4,4.18341,0,0,19.5,
1534,SBT4050,1,4,4.18343,0,0,19.5,
1534,SBT4050,1,4,4.18345,0,0,19.5,
1534,SBT4050,1,4,4.1836,0,0,19.4,
1534,SBT4050,1,4,4.183332,0,0,19.4,
1534,SBT4050,1,4,4.18332,0,0,19.4,
1534,SBT4050,1,4,4.18326,0,0,19.4,
1534,SBT4050,1,4,4.18307,0,0,19.5,
1534,SBT4050,1,4,4.183268,0,0,19.4,
1534,SBT4050,1,4,4.183048,0,0,19.4,
1534,SBT4050,1,4,4.183056,0,0,19.4,
1534,SBT4050,1,4,4.183,0,0,19.4,
1534,SBT4050,1,4,4.18322,0,0,19.4,
1534,SBT4050,1,4,4.18314,0,0,19.4,
1534,SBT4050,1,4,4.18328,0,0,19.4,
1534,SBT4050,1,4,4.183458,0,0,19.4,
1534,SBT4050,1,4,4.18326,0,0,19.4,
1534,SBT4050,1,4,4.18318,0,0,19.4,
1534,SBT4050,1,4,4.18298,0,0,19.4,
1534,SBT4050,1,4,4.18349,0,0,19.3,
1534,SBT4050,1,4,4.18319,0,0,19.4,
1534,SBT4050,1,4,4.183,0,0,19.4,
1534,SBT4050,1,4,4.182958,0,0,19.4,
1534,SBT4050,1,4,4.18295,0,0,19.3,
1534,SBT4050,1,4,4.18271,0,0,19.4,
1534,SBT4050,1,4,4.18332,0,0,19.4,
1534,SBT4050,1,4,4.18293,0,0,19.4,
1534,SBT4050,1,4,4.1828,0,0,19.3,
1534,SBT4050,1,4,4.18271,0,0,19.4,
1534,SBT4050,1,4,4.18295,0,0,19.4,
1534,SBT4050,1,4,4.18295,0,0,19.4,
1534,SBT4050,1,4,4.18284,0,0,19.3,
1534,SBT4050,1,4,4.183236,0,0,19.3,
1534,SBT4050,1,4,4.18282,0,0,19.4,
1534,SBT4050,1,4,4.18292,0,0,19.4,
1534,SBT4050,1,4,4.182822,0,0,19.3,
1534,SBT4050,1,4,4.18296,0,0,19.3,
1534,SBT4050,1,4,4.18282,0,0,19.3,
1534,SBT4050,1,4,4.18258,0,0,19.3,
1534,SBT4050,1,4,4.18289,0,0,19.3,
1534,SBT4050,1,4,4.18279,0,0,19.3,
1534,SBT4050,1,4,4.18287,0,0,19.4,
1534,SBT4050,1,4,4.18275,0,0,19.3,
1534,SBT4050,1,4,4.18303,0,0,19.3,
1534,SBT4050,1,4,4.182742,0,0,19.3,
1534,SBT4050,1,4,4.183048,0,0,19.4,
1534,SBT4050,1,4,4.18293,0,0,19.4,
1534,SBT4050,1,4,4.18292,0,0,19.4,
1534,SBT4050,1,4,4.18288,0,0,19.3,
1534,SBT4050,1,4,4.18278,0,0,19.3,
1534,SBT4050,1,4,4.18268,0,0,19.3,
1534,SBT4050,1,4,4.18274,0,0,19.3,
1534,SBT4050,1,4,4.18264,0,0,19.3,
1534,SBT4050,1,4,4.18277,0,0,19.3,
1534,SBT4050,1,4,4.1829,0,0,19.3,
1534,SBT4050,1,4,4.18259,0,0,19.3,
1534,SBT4050,1,4,4.18267,0,0,19.3,
1534,SBT4050,1,4,4.18244,0,0,19.3,
1534,SBT4050,1,4,4.18243,0,0,19.3,
1534,SBT4050,1,4,4.18258,0,0,19.3,
1534,SBT4050,1,4,4.18255,0,0,19.3,
1534,SBT4050,1,4,4.182432,0,0,19.3,
1534,SBT4050,1,4,4.1824,0,0,19.3,
1534,SBT4050,1,4,4.18248,0,0,19.3,
1534,SBT4050,1,4,4.18226,0,0,19.3,
1534,SBT4050,1,4,4.182506,0,0,19.3,
1534,SBT4050,1,4,4.182362,0,0,19.3,
1534,SBT4050,1,4,4.18231,0,0,19.3,
1534,SBT4050,1,4,4.18242,0,0,19.3,
1534,SBT4050,1,4,4.18222,0,0,19.4,
1534,SBT4050,1,4,4.18238,0,0,19.4,
1534,SBT4050,1,4,4.182256,0,0,19.3,
1534,SBT4050,1,4,4.182528,0,0,19.3,
1534,SBT4050,1,4,4.18244,0,0,19.3,
1534,SBT4050,1,4,4.182534,0,0,19.4,
1534,SBT4050,1,4,4.1824,0,0,19.4,
1534,SBT4050,1,4,4.18225,0,0,19.4,
1534,SBT4050,1,4,4.18248,0,0,19.4,
1534,SBT4050,1,4,4.182296,0,0,19.4,
1534,SBT4050,1,4,4.18244,0,0,19.4,
1534,SBT4050,1,4,4.18237,0,0,19.4,
1534,SBT4050,1,4,4.18231,0,0,19.4,
1534,SBT4050,1,4,4.18254,0,0,19.4,
1534,SBT4050,1,4,4.18237,0,0,19.4,
1534,SBT4050,1,4,4.18232,0,0,19.4,
1534,SBT4050,1,4,4.18229,0,0,19.4,
1534,SBT4050,1,4,4.18237,0,0,19.4,
1534,SBT4050,1,4,4.182118,0,0,19.4,
1534,SBT4050,1,4,4.18201,0,0,19.4,
1534,SBT4050,1,4,4.18225,0,0,19.4,
1534,SBT4050,1,4,4.18215,0,0,19.4,
1534,SBT4050,1,4,4.1821,0,0,19.4,
1534,SBT4050,1,4,4.18199,0,0,19.4,
1534,SBT4050,1,4,4.182102,0,0,19.4,
1534,SBT4050,1,4,4.18207,0,0,19.4,
1534,SBT4050,1,4,4.18214,0,0,19.5,
1534,SBT4050,1,4,4.18187,0,0,19.5,
1534,SBT4050,1,4,4.182134,0,0,19.5,
1534,SBT4050,1,4,4.18204,0,0,19.5,
1534,SBT4050,1,4,4.18222,0,0,19.5,
1534,SBT4050,1,4,4.18193,0,0,19.5,
1534,SBT4050,1,4,4.18199,0,0,19.5,
1534,SBT4050,1,4,4.18232,0,0,19.5,
1534,SBT4050,1,4,4.1823,0,0,19.5,
1534,SBT4050,1,4,4.182352,0,0,19.5,
1534,SBT4050,1,4,4.18258,0,0,19.5,
1534,SBT4050,1,4,4.18244,0,0,19.5,
1534,SBT4050,1,4,4.18231,0,0,19.5,
1534,SBT4050,1,4,4.18216,0,0,19.5,
1534,SBT4050,1,4,4.18215,0,0,19.5,
1534,SBT4050,1,4,4.18235,0,0,19.5,
1534,SBT4050,1,4,4.18196,0,0,19.5,
1534,SBT4050,1,4,4.182066,0,0,19.5,
1534,SBT4050,1,4,4.18186,0,0,19.5,
1534,SBT4050,1,4,4.18186,0,0,19.5,
1534,SBT4050,1,4,4.18198,0,0,19.5,
1534,SBT4050,1,4,4.18202,0,0,19.5,
1534,SBT4050,1,4,4.1819,0,0,19.5,
1534,SBT4050,1,4,4.18214,0,0,19.5,
1534,SBT4050,1,4,4.18191,0,0,19.5,
1534,SBT4050,1,4,4.182058,0,0,19.5,
1534,SBT4050,1,4,4.18216,0,0,19.5,
1534,SBT4050,1,4,4.182014,0,0,19.5,
1534,SBT4050,1,4,4.18207,0,0,19.5,
1534,SBT4050,1,4,4.18176,0,0,19.5,
1534,SBT4050,1,4,4.18175,0,0,19.5,
1534,SBT4050,1,4,4.182,0,0,19.5,
1534,SBT4050,1,4,4.181928,0,0,19.5,
1534,SBT4050,1,4,4.18197,0,0,19.5,
1534,SBT4050,1,4,4.181876,0,0,19.5,
1534,SBT4050,1,4,4.182012,0,0,19.5,
1534,SBT4050,1,4,4.18197,0,0,19.6,
1534,SBT4050,1,4,4.18197,0,0,19.6,
1534,SBT4050,1,4,4.18184,0,0,19.6,
1534,SBT4050,1,4,4.18202,0,0,19.6,
1534,SBT4050,1,4,4.18207,0,0,19.5,
1534,SBT4050,1,4,4.18191,0,0,19.5,
1534,SBT4050,1,4,4.181788,0,0,19.5,
1534,SBT4050,1,4,4.181648,0,0,19.5,
1534,SBT4050,1,4,4.18217,0,0,19.6,
1534,SBT4050,1,4,4.18194,0,0,19.6,
1534,SBT4050,1,4,4.18192,0,0,19.6,
1534,SBT4050,1,4,4.18186,0,0,19.6,
1534,SBT4050,1,4,4.181882,0,0,19.5,
1534,SBT4050,1,4,4.18204,0,0,19.5,
1534,SBT4050,1,4,4.18196,0,0,19.6,
1534,SBT4050,1,4,4.18222,0,0,19.6,
1534,SBT4050,1,4,4.182132,0,0,19.6,
1534,SBT4050,1,4,4.18183,0,0,19.6,
1534,SBT4050,1,4,4.18162,0,0,19.6,
1534,SBT4050,1,4,4.18186,0,0,19.6,
1534,SBT4050,1,4,4.18193,0,0,19.6,
1534,SBT4050,1,4,4.18174,0,0,19.6,
1534,SBT4050,1,4,4.18156,0,0,19.6,
1534,SBT4050,1,4,4.18139,0,0,19.6,
1534,SBT4050,1,4,4.18166,0,0,19.7,
1534,SBT4050,1,4,4.18206,0,0,19.6,
1534,SBT4050,1,4,4.18197,0,0,19.6,
1534,SBT4050,1,4,4.18157,0,0,19.6,
1534,SBT4050,1,4,4.18181,0,0,19.6,
1534,SBT4050,1,4,4.18185,0,0,19.6,
1534,SBT4050,1,4,4.18182,0,0,19.6,
1534,SBT4050,1,4,4.18202,0,0,19.6,
1534,SBT4050,1,4,4.18162,0,0,19.6,
1534,SBT4050,1,4,4.181348,0,0,19.6,
1534,SBT4050,1,4,4.18171,0,0,19.6,
1534,SBT4050,1,4,4.18134,0,0,19.6,
1534,SBT4050,1,4,4.18176,0,0,19.6,
1534,SBT4050,1,4,4.18146,0,0,19.6,
1534,SBT4050,1,4,4.18176,0,0,19.5,
1534,SBT4050,1,4,4.18155,0,0,19.6,
1534,SBT4050,1,4,4.181546,0,0,19.6,
1534,SBT4050,1,4,4.181654,0,0,19.6,
1534,SBT4050,1,4,4.181474,0,0,19.6,
1534,SBT4050,1,4,4.181588,0,0,19.6,
1534,SBT4050,1,4,4.18174,0,0,19.6,
1534,SBT4050,1,4,4.18166,0,0,19.6,
1534,SBT4050,1,4,4.18165,0,0,19.6,
1534,SBT4050,1,4,4.1817,0,0,19.6,
1534,SBT4050,1,4,4.1812,0,0,19.6,
1534,SBT4050,1,4,4.181548,0,0,19.6,
1534,SBT4050,1,4,4.18179,0,0,19.6,
1534,SBT4050,1,4,4.18135,0,0,19.6,
1534,SBT4050,1,4,4.18137,0,0,19.7,
1534,SBT4050,1,4,4.18133,0,0,19.7,
1534,SBT4050,1,4,4.18124,0,0,19.7,
1534,SBT4050,1,4,4.181086,0,0,19.7,
1534,SBT4050,1,4,4.18135,0,0,19.6,
1534,SBT4050,1,4,4.18131,0,0,19.6,
1534,SBT4050,1,4,4.181324,0,0,19.6,
1534,SBT4050,1,4,4.1813,0,0,19.6,
1534,SBT4050,1,4,4.181318,0,0,19.6,
1534,SBT4050,1,4,4.18116,0,0,19.6,
1534,SBT4050,1,4,4.18137,0,0,19.7,
1534,SBT4050,1,4,4.18139,0,0,19.6,
1534,SBT4050,1,4,4.18126,0,0,19.6,
1534,SBT4050,1,4,4.18143,0,0,19.6,
1534,SBT4050,1,4,4.18149,0,0,19.6,
1534,SBT4050,1,4,4.18142,0,0,19.6,
1534,SBT4050,1,4,4.18124,0,0,19.6,
1534,SBT4050,1,4,4.18129,0,0,19.6,
1534,SBT4050,1,4,4.18121,0,0,19.6,
1534,SBT4050,1,4,4.18084,0,0,19.6,
1534,SBT4050,1,4,4.18114,0,0,19.6,
1534,SBT4050,1,4,4.18109,0,0,19.6,
1534,SBT4050,1,4,4.18105,0,0,19.6,
1534,SBT4050,1,4,4.18124,0,0,19.6,
1534,SBT4050,1,4,4.1808,0,0,19.6,
1534,SBT4050,1,4,4.18092,0,0,19.6,
1534,SBT4050,1,4,4.18105,0,0,19.6,
1534,SBT4050,1,4,4.18095,0,0,19.6,
1534,SBT4050,1,4,4.18122,0,0,19.6,
1534,SBT4050,1,4,4.18113,0,0,19.6,
1534,SBT4050,1,4,4.18106,0,0,19.6,
1534,SBT4050,1,4,4.18107,0,0,19.6,
1534,SBT4050,1,4,4.181318,0,0,19.6,
1534,SBT4050,1,4,4.18142,0,0,19.7,
1534,SBT4050,1,4,4.18135,0,0,19.7,
1534,SBT4050,1,4,4.181068,0,0,19.7,
1534,SBT4050,1,4,4.18077,0,0,19.6,
1534,SBT4050,1,4,4.18118,0,0,19.6,
1534,SBT4050,1,4,4.1812,0,0,19.7,
1534,SBT4050,1,4,4.18113,0,0,19.6,
1534,SBT4050,1,4,4.18111,0,0,19.6,
1534,SBT4050,1,4,4.18123,0,0,19.6,
1534,SBT4050,1,4,4.18124,0,0,19.6,
1534,SBT4050,1,4,4.1812,0,0,19.6,
1534,SBT4050,1,4,4.181102,0,0,19.6,
1534,SBT4050,1,4,4.181218,0,0,19.6,
1534,SBT4050,1,4,4.18149,0,0,19.6,
1534,SBT4050,1,4,4.1812,0,0,19.6,
1534,SBT4050,1,4,4.18122,0,0,19.6,
1534,SBT4050,1,4,4.181,0,0,19.6,
1534,SBT4050,1,4,4.18091,0,0,19.6,
1534,SBT4050,1,4,4.181,0,0,19.6,
1534,SBT4050,1,4,4.18121,0,0,19.6,
1534,SBT4050,1,4,4.18124,0,0,19.6,
1534,SBT4050,1,4,4.18099,0,0,19.6,
1534,SBT4050,1,4,4.18113,0,0,19.6,
1534,SBT4050,1,4,4.18114,0,0,19.6,
1534,SBT4050,1,4,4.18111,0,0,19.6,
1534,SBT4050,1,4,4.180932,0,0,19.6,
1534,SBT4050,1,4,4.1812,0,0,19.6,
1534,SBT4050,1,4,4.18107,0,0,19.6,
1534,SBT4050,1,4,4.18105,0,0,19.6,
1534,SBT4050,1,4,4.18082,0,0,19.6,
1534,SBT4050,1,4,4.18103,0,0,19.6,
1534,SBT4050,1,4,4.18114,0,0,19.6,
1534,SBT4050,1,4,4.180868,0,0,19.6,
1534,SBT4050,1,4,4.18089,0,0,19.6,
1534,SBT4050,1,4,4.18111,0,0,19.6,
1534,SBT4050,1,4,4.18087,0,0,19.6,
1534,SBT4050,1,4,4.18067,0,0,19.6,
1534,SBT4050,1,4,4.18118,0,0,19.6,
1534,SBT4050,1,4,4.18115,0,0,19.6,
1534,SBT4050,1,4,4.18128,0,0,19.6,
1534,SBT4050,1,4,4.18127,0,0,19.6,
1534,SBT4050,1,4,4.181216,0,0,19.6,
1534,SBT4050,1,4,4.18098,0,0,19.6,
1534,SBT4050,1,4,4.18104,0,0,19.6,
1534,SBT4050,1,4,4.18115,0,0,19.6,
1534,SBT4050,1,4,4.18106,0,0,19.6,
1534,SBT4050,1,4,4.1809,0,0,19.6,
1534,SBT4050,1,4,4.18059,0,0,19.6,
1534,SBT4050,1,4,4.18087,0,0,19.6,
1534,SBT4050,1,4,4.18334,0.10998,0.008,19.6,
1534,SBT4050,1,4,4.18835,0.211,0.008,19.6,
1534,SBT4050,1,4,4.18382,0.011,0.008,19.6,
1534,SBT4050,1,4,4.18536,-0.003998,0.009,19.7,
1534,SBT4050,1,4,4.18565,0.027001,0.012,19.6,
1534,SBT4050,1,4,4.060276,-4.118,2.318,19.6,
1534,SBT4050,1,4,3.95137,-6.512,14.628,19.6,
1534,SBT4050,1,4,3.91391,-6.991,27.039,19.7,
1534,SBT4050,1,4,4.088306,-0.231,33.795,19.7,
1534,SBT4050,1,4,4.04067,-3.132,34.459,19.8,
1534,SBT4050,1,4,3.85884,-8.451,48.357,19.9,
1534,SBT4050,1,4,4.158348,3.1943,54.844,19.9,
1534,SBT4050,1,4,3.8842,-8.021,59.26,20,
1534,SBT4050,1,4,3.85183,-7.26,77.115,20,
1534,SBT4050,1,4,3.86294,-6.234,90.469,20.1,
1534,SBT4050,1,4,3.9812,-1.452,98.6,20.3,
1534,SBT4050,1,4,4.14875,3.9998,99.114,20.3,
1534,SBT4050,1,4,3.91615,-6.089,101.497,20.4,
1534,SBT4050,1,4,3.77176,-9.461,121.053,20.4,
1534,SBT4050,1,4,3.753194,-9.042,139.763,20.5,
1534,SBT4050,1,4,4.03075,2.6661,149.758,20.7,
1534,SBT4050,1,4,3.9473,-2.6537,151.128,20.8,
1534,SBT4050,1,4,3.75679,-9.528,163.525,20.9,
1534,SBT4050,1,4,3.96435,-0.364,172.504,20.9,
1534,SBT4050,1,4,4.05542,1.3828,172.54,21,
1534,SBT4050,1,4,4.13908,4.0001,172.54,21,
1534,SBT4050,1,4,4.05442,-0.09698,172.567,21,
1534,SBT4050,1,4,4.05279,-0.017991,172.653,21,
1534,SBT4050,1,4,4.0534,0.01,172.675,21,
1534,SBT4050,1,4,3.991174,-2.5872,173.39,20.9,
1534,SBT4050,1,4,3.649824,-14.5,191.895,20.9,
1534,SBT4050,1,4,3.71129,-9.662,216.019,20.9,
1534,SBT4050,1,4,4.01511,2.1939,221.006,21.1,
1534,SBT4050,1,4,4.095984,3.9996,221.006,21.2,
1534,SBT4050,1,4,3.90145,-4.3798,224.612,21.3,
1534,SBT4050,1,4,4.06503,3.1996,230.86,21.3,
1534,SBT4050,1,4,4.06176,1.1008,230.86,21.3,
1534,SBT4050,1,4,4.03308,-0.005999,230.905,21.2,
1534,SBT4050,1,4,4.03451,-0.005,230.92,21.2,
1534,SBT4050,1,4,4.03684,-0.014002,230.936,21.2,
1534,SBT4050,1,4,3.71422,-12.833,238.254,21.1,
1534,SBT4050,1,4,3.60068,-14.499,266.285,21.1,
1534,SBT4050,1,4,3.77606,-5.971,284.734,21.1,
1534,SBT4050,1,4,3.67257,-10.15,301.011,21.4,
1534,SBT4050,1,4,3.65306,-10.689,317.46,21.6,
1534,SBT4050,1,4,3.686448,-8.176,337.116,21.7,
1534,SBT4050,1,4,3.83769,-2.217,345.15,21.9,
1534,SBT4050,1,4,3.99732,3.8762,346.333,22,
1534,SBT4050,1,4,4.04305,3.9994,346.333,22,
1534,SBT4050,1,4,4.02907,2.0548,346.333,22,
1534,SBT4050,1,4,3.980566,-0.06899,346.407,22,
1534,SBT4050,1,4,3.982874,-0.06899,346.532,21.9,
1534,SBT4050,1,4,3.98385,-0.16499,346.667,21.9,
1534,SBT4050,1,4,3.750152,-9.098,356.967,21.9,
1534,SBT4050,1,4,3.77474,-6.128,374.852,21.8,
1534,SBT4050,1,4,3.78123,-5.801,384.568,21.8,
1534,SBT4050,1,4,3.76343,-6.085,396.219,21.8,
1534,SBT4050,1,4,3.80517,-4.0861,405.401,21.9,
1534,SBT4050,1,4,3.801266,-4.0195,414.724,21.8,
1534,SBT4050,1,4,3.9045,-0.06198,417.586,21.8,
1534,SBT4050,1,4,3.982,2.7318,417.835,21.8,
1534,SBT4050,1,4,3.99529,1.6501,417.835,21.8,
1534,SBT4050,1,4,3.732546,-8.146,431.104,21.7,
1534,SBT4050,1,4,3.75957,-5.645,445.638,21.7,
1534,SBT4050,1,4,3.843978,-1.8519,453.522,21.7,
1534,SBT4050,1,4,3.83723,-2.9169,456.078,21.8,
1534,SBT4050,1,4,3.78616,-4.3865,465.486,21.7,
1534,SBT4050,1,4,3.79559,-3.8557,472.826,21.7,
1534,SBT4050,1,4,3.82334,-2.5811,479.091,21.7,
1534,SBT4050,1,4,3.83453,-2.691,481.45,21.6,
1534,SBT4050,1,4,3.75593,-5.232,491.478,21.6,
1534,SBT4050,1,4,3.79348,-3.5408,498.011,21.6,
1534,SBT4050,1,4,3.94395,2.4188,499.716,21.6,
1534,SBT4050,1,4,3.93474,0.5818,499.716,21.6,
1534,SBT4050,1,4,3.9212,-0.058,499.801,21.5,
1534,SBT4050,1,4,3.923826,-0.06199,499.919,21.4,
1534,SBT4050,1,4,3.89856,-1.295,500.391,21.4,
1534,SBT4050,1,4,3.81807,-3.9882,506.71,21.3,
1534,SBT4050,1,4,3.732588,-6.686,517.686,21.3,
1534,SBT4050,1,4,3.77735,-4.0117,528.166,21.2,
1534,SBT4050,1,4,3.77277,-4.1603,535.504,21.3,
1534,SBT4050,1,4,3.75943,-4.4051,543.9,21.3,
1534,SBT4050,1,4,3.75512,-4.3137,552.374,21.2,
1534,SBT4050,1,4,3.856184,0.37793,559.664,21.2,
1534,SBT4050,1,4,3.88618,0.22195,559.664,21.2,
1534,SBT4050,1,4,3.88883,-0.020999,559.718,21.2,
1534,SBT4050,1,4,3.89475,-0.017988,559.752,21.2,
1534,SBT4050,1,4,3.899838,-0.012999,559.788,21.2,
1534,SBT4050,1,4,3.895416,-0.35003,560.059,21.1,
1534,SBT4050,1,4,3.90643,-0.011,560.265,21.1,
1534,SBT4050,1,4,3.86446,-1.8739,561.176,21,
1534,SBT4050,1,4,3.71369,-7.146,570.939,21,
1534,SBT4050,1,4,3.711938,-6.074,583.854,21,
1534,SBT4050,1,4,3.72003,-4.902,596.49,21,
1534,SBT4050,1,4,3.91818,2.8608,598.558,21,
1534,SBT4050,1,4,3.67926,-7.831,604.39,21,
1534,SBT4050,1,4,3.71672,-4.5489,619.229,21,
1534,SBT4050,1,4,3.88957,1.4408,620.529,21.1,
1534,SBT4050,1,4,3.55729,-11.933,634.091,21.2,
1534,SBT4050,1,4,3.61636,-7.959,651.879,21.1,
1534,SBT4050,1,4,3.669016,-5.426,664.135,21.2,
1534,SBT4050,1,4,3.80737,-0.006999,668.106,21.3,
1534,SBT4050,1,4,3.91618,3.155,668.106,21.3,
1534,SBT4050,1,4,3.551278,-12.388,678.511,21.3,
1534,SBT4050,1,4,3.51886,-11.531,701.215,21.3,
1534,SBT4050,1,4,3.59653,-7.194,719.453,21.4,
1534,SBT4050,1,4,3.87997,4.0001,722.908,21.6,
1534,SBT4050,1,4,3.69004,-5.301,727.113,21.7,
1534,SBT4050,1,4,3.64032,-5.946,742.423,21.7,
1534,SBT4050,1,4,3.88198,3.9999,745.041,21.8,
1534,SBT4050,1,4,3.85397,1.3219,745.041,21.8,
1534,SBT4050,1,4,3.92789,3.5116,745.041,21.8,
1534,SBT4050,1,4,3.84978,-0.078,745.161,21.8,
1534,SBT4050,1,4,3.85022,-0.05399,745.292,21.7,
1534,SBT4050,1,4,3.85116,-0.07499,745.42,21.6,
1534,SBT4050,1,4,3.62383,-9.681,752.072,21.6,
1534,SBT4050,1,4,3.44692,-14.499,779.243,21.5,
1534,SBT4050,1,4,3.66937,-3.2421,797.792,21.6,
1534,SBT4050,1,4,3.83078,1.8852,798.366,21.8,
1534,SBT4050,1,4,3.79568,-0.983,798.543,21.9,
1534,SBT4050,1,4,3.6904,-4.992,805.789,21.8,
1534,SBT4050,1,4,3.90175,4.0003,808.387,21.9,
1534,SBT4050,1,4,3.832454,-0.06599,808.433,21.8,
1534,SBT4050,1,4,3.83305,-0.06499,808.558,21.8,
1534,SBT4050,1,4,3.834852,-0.06599,808.675,21.7,
1534,SBT4050,1,4,3.82375,-0.6859,808.914,21.7,
1534,SBT4050,1,4,3.46545,-14.497,827.581,21.6,
1534,SBT4050,1,4,3.47859,-11.259,854.759,21.6,
1534,SBT4050,1,4,3.5512,-8.026,869.833,21.8,
1534,SBT4050,1,4,3.550994,-7.233,887.751,22,
1534,SBT4050,1,4,3.49326,-9.295,905.87,22.1,
1534,SBT4050,1,4,3.579328,-4.865,922.698,22.2,
1534,SBT4050,1,4,3.695358,-0.7589,927.234,22.4,
1534,SBT4050,1,4,3.832848,3.9994,927.356,22.4,
1534,SBT4050,1,4,3.86677,3.9999,927.356,22.4,
1534,SBT4050,1,4,3.79722,-0.05499,927.366,22.4,
1534,SBT4050,1,4,3.794242,-0.07599,927.504,22.3,
1534,SBT4050,1,4,3.79514,-0.08799,927.641,22.2,
1534,SBT4050,1,4,3.69241,-4.8449,929.625,22.2,
1534,SBT4050,1,4,3.462,-12.801,950.185,22.1,
1534,SBT4050,1,4,3.622926,-4.2677,965.743,22.1,
1534,SBT4050,1,4,3.58583,-5.913,976.315,22.2,
1534,SBT4050,1,4,3.61686,-4.043,987.444,22.2,
1534,SBT4050,1,4,3.610346,-4.7201,994.182,22.2,
1534,SBT4050,1,4,3.68091,-1.3889,1001.007,22.2,
1534,SBT4050,1,4,3.76308,1.325,1001.217,22.2,
1534,SBT4050,1,4,3.84671,3.9999,1001.217,22.1,
1534,SBT4050,1,4,3.594074,-8.292,1004.879,22.1,
1534,SBT4050,1,4,3.5131,-9.175,1024.119,22,
1534,SBT4050,1,4,3.59268,-4.772,1036.958,22,
1534,SBT4050,1,4,3.68999,-0.7689,1041.752,22,
1534,SBT4050,1,4,3.60094,-5.136,1046.865,22.1,
1534,SBT4050,1,4,3.6219,-3.5214,1056.091,22,
1534,SBT4050,1,4,3.62115,-3.4831,1063.276,22,
1534,SBT4050,1,4,3.69128,-0.4749,1067.769,22,
1534,SBT4050,1,4,3.590568,-5.379,1072.296,22,
1534,SBT4050,1,4,3.62961,-2.749,1082.062,21.9,
1534,SBT4050,1,4,3.69434,0.25597,1087.798,21.9,
1534,SBT4050,1,4,3.805132,3.9998,1087.798,21.9,
1534,SBT4050,1,4,3.73691,-0.05099,1087.813,21.8,
1534,SBT4050,1,4,3.73874,-0.06401,1087.926,21.8,
1534,SBT4050,1,4,3.74175,-0.066,1088.04,21.7,
1534,SBT4050,1,4,3.66461,-3.4421,1090.424,21.6,
1534,SBT4050,1,4,3.59821,-5.527,1098.505,21.6,
1534,SBT4050,1,4,3.55973,-5.989,1110.868,21.5,
1534,SBT4050,1,4,3.60263,-3.7005,1119.529,21.5,
1534,SBT4050,1,4,3.58084,-4.489,1127.348,21.5,
1534,SBT4050,1,4,3.57184,-4.5535,1136.047,21.5,
1534,SBT4050,1,4,3.54663,-5.449,1144.914,21.5,
1534,SBT4050,1,4,3.738506,2.6609,1148.571,21.4,
1534,SBT4050,1,4,3.69904,-0.06999,1148.594,21.4,
1534,SBT4050,1,4,3.70577,-0.07999,1148.734,21.4,
1534,SBT4050,1,4,3.71168,-0.06099,1148.849,21.4,
1534,SBT4050,1,4,3.71588,-0.07299,1148.976,21.3,
1534,SBT4050,1,4,3.71831,-0.084,1149.419,21.3,
1534,SBT4050,1,4,3.72221,-0.067,1149.505,21.2,
1534,SBT4050,1,4,3.61111,-4.7658,1152.965,21.2,
1534,SBT4050,1,4,3.52329,-7.108,1165.708,21.1,
1534,SBT4050,1,4,3.50291,-7.081,1178.331,21.1,
1534,SBT4050,1,4,3.62819,-0.963,1188.6,21.1,
1534,SBT4050,1,4,3.6981,0.6339,1188.83,21.1,
1534,SBT4050,1,4,3.46649,-8.481,1201.042,21.2,
1534,SBT4050,1,4,3.66023,0.823,1211.237,21.2,
1534,SBT4050,1,4,3.55519,-5.448,1213.097,21.2,
1534,SBT4050,1,4,3.39738,-10.076,1233.409,21.2,
1534,SBT4050,1,4,3.46658,-6.295,1249.005,21.3,
1534,SBT4050,1,4,3.55683,-2.2671,1259.079,21.4,
1534,SBT4050,1,4,3.702626,3.1612,1260.325,21.5,
1534,SBT4050,1,4,3.61172,-2.6149,1260.826,21.5,
1534,SBT4050,1,4,3.34773,-12.096,1280.166,21.5,
1534,SBT4050,1,4,3.36525,-9.654,1301.933,21.5,
1534,SBT4050,1,4,3.55454,-0.8959,1315.259,21.7,
1534,SBT4050,1,4,3.61576,-0.5079,1315.438,21.8,
1534,SBT4050,1,4,3.41833,-8.981,1324.752,21.8,
1534,SBT4050,1,4,3.57558,-0.7639,1336.849,21.8,
1534,SBT4050,1,4,3.71862,3.9998,1336.924,21.8,
1534,SBT4050,1,4,3.73834,3.9998,1337.004,21.9,
1534,SBT4050,1,4,3.674,0.006999,1337.004,21.8,
1534,SBT4050,1,4,3.66955,-0.08199,1337.196,21.8,
1534,SBT4050,1,4,3.67101,-0.07198,1337.336,21.7,
1534,SBT4050,1,4,3.65298,-0.966,1337.694,21.7,
1534,SBT4050,1,4,3.31067,-14.498,1354.366,21.6,
1534,SBT4050,1,4,3.31321,-11.713,1380.757,21.6,
1534,SBT4050,1,4,3.66065,3.7173,1389.952,21.8,
1534,SBT4050,1,4,3.71226,4.0002,1389.952,21.9,
1534,SBT4050,1,4,3.5624,-3.6725,1391.783,22,
1534,SBT4050,1,4,3.60144,-0.8328,1399.739,22,
1534,SBT4050,1,4,3.72596,3.3758,1399.82,22,
1534,SBT4050,1,4,3.65582,-0.07599,1399.934,21.9,
1534,SBT4050,1,4,3.65698,-0.07699,1400.073,21.8,
1534,SBT4050,1,4,3.65937,-0.06299,1400.201,21.8,
1534,SBT4050,1,4,3.48518,-7.904,1403.584,21.7,
1534,SBT4050,1,4,3.26201,-14.5,1430.408,21.6,
1534,SBT4050,1,4,3.40306,-6.602,1453.1,21.7,
1534,SBT4050,1,4,3.31826,-10.508,1467.895,21.9,
1534,SBT4050,1,4,3.35864,-8.22,1484.297,22.1,
1534,SBT4050,1,4,3.29769,-10.158,1504.149,22.2,
1534,SBT4050,1,4,3.47572,-2.511,1515.502,22.4,
1534,SBT4050,1,4,3.594778,1.9311,1517.436,22.5,
1534,SBT4050,1,4,3.67273,4.0002,1517.436,22.5,
1534,SBT4050,1,4,3.69863,4.0001,1517.436,22.5,
1534,SBT4050,1,4,3.618668,-0.082,1517.497,22.4,
1534,SBT4050,1,4,3.620402,-0.083,1517.652,22.4,
1534,SBT4050,1,4,3.62345,-0.07099,1517.8,22.3,
1534,SBT4050,1,4,3.37563,-10.675,1526.216,22.2,
1534,SBT4050,1,4,3.341504,-9.48,1549.205,22.1,
1534,SBT4050,1,4,3.42836,-5.621,1559.857,22.2,
1534,SBT4050,1,4,3.40284,-6.427,1571.451,22.2,
1534,SBT4050,1,4,3.49699,-2.2589,1579.308,22.3,
1534,SBT4050,1,4,3.45407,-4.2076,1586.989,22.3,
1534,SBT4050,1,4,3.5742,0.846,1590.493,22.3,
1534,SBT4050,1,4,3.62088,1.8539,1590.493,22.2,
1534,SBT4050,1,4,3.69461,4.0001,1590.493,22.2,
1534,SBT4050,1,4,3.34665,-10.695,1601.763,22.1,
1534,SBT4050,1,4,3.3847,-7.026,1619.819,22,
1534,SBT4050,1,4,3.47036,-3.0929,1629.335,22,
1534,SBT4050,1,4,3.51943,-1.6352,1631.938,22.1,
1534,SBT4050,1,4,3.426818,-5.321,1640.568,22.1,
1534,SBT4050,1,4,3.450902,-4.0912,1648.32,22.1,
1534,SBT4050,1,4,3.4713,-3.122,1655.131,22.1,
1534,SBT4050,1,4,3.52343,-1.284,1657.805,22,
1534,SBT4050,1,4,3.39082,-6.649,1666.626,22,
1534,SBT4050,1,4,3.448964,-3.9021,1674.166,21.9,
1534,SBT4050,1,4,3.56354,0.7521,1677.339,21.9,
1534,SBT4050,1,4,3.62676,2.1768,1677.339,21.9,
1534,SBT4050,1,4,3.58112,-0.06699,1677.412,21.8,
1534,SBT4050,1,4,3.584548,-0.06999,1677.547,21.7,
1534,SBT4050,1,4,3.5828,-0.31201,1677.733,21.6,
1534,SBT4050,1,4,3.49413,-3.6961,1682.992,21.6,
1534,SBT4050,1,4,3.40672,-6.581,1693.017,21.5,
1534,SBT4050,1,4,3.43265,-4.5214,1704.644,21.5,
1534,SBT4050,1,4,3.45004,-3.6944,1712.197,21.5,
1534,SBT4050,1,4,3.429944,-4.2754,1720.606,21.5,
1534,SBT4050,1,4,3.425696,-4.1747,1729.286,21.5,
1534,SBT4050,1,4,3.46308,-2.25,1738.052,21.5,
1534,SBT4050,1,4,3.56289,0.724,1738.4,21.5,
1534,SBT4050,1,4,3.55348,-0.07297,1738.491,21.5,
1534,SBT4050,1,4,3.56023,-0.07297,1738.625,21.4,
1534,SBT4050,1,4,3.565882,-0.069,1738.747,21.3,
1534,SBT4050,1,4,3.56535,-0.27197,1738.972,21.3,
1534,SBT4050,1,4,3.574278,-0.028997,1739.322,21.3,
1534,SBT4050,1,4,3.5555,-1.0028,1739.696,21.2,
1534,SBT4050,1,4,3.40801,-6.435,1747.491,21.2,
1534,SBT4050,1,4,3.38165,-6.163,1760.959,21.2,
1534,SBT4050,1,4,3.341111,-6.99,1774.309,21.1,
1534,SBT4050,1,4,3.54906,1.2959,1778.864,21.2,
1534,SBT4050,1,4,3.38408,-6.561,1781.959,21.3,
1534,SBT4050,1,4,3.32704,-7.174,1797.85,21.3,
1534,SBT4050,1,4,3.608638,3.7998,1801.396,21.3,
1534,SBT4050,1,4,3.241033,-11.395,1810.502,21.3,
1534,SBT4050,1,4,3.26773,-8.474,1830.822,21.3,
1534,SBT4050,1,4,3.32167,-6.102,1844.387,21.5,
1534,SBT4050,1,4,3.46538,-0.741,1850.604,21.6,
1534,SBT4050,1,4,3.60741,4.0002,1850.723,21.7,
1534,SBT4050,1,4,3.27629,-10.102,1856.664,21.7,
1534,SBT4050,1,4,3.18109,-11.163,1879.869,21.6,
1534,SBT4050,1,4,3.22059,-8.573,1899.98,21.8,
1534,SBT4050,1,4,3.563848,3.9994,1906.083,22,
1534,SBT4050,1,4,3.432064,-2.9457,1907.509,22.2,
1534,SBT4050,1,4,3.2989,-6.99,1919.952,22.3,
1534,SBT4050,1,4,3.57596,3.9997,1924.269,22.2,
1534,SBT4050,1,4,3.55237,1.4,1924.269,22.2,
1534,SBT4050,1,4,3.62376,3.9998,1924.269,22.2,
1534,SBT4050,1,4,3.532136,-0.13299,1924.393,22.1,
1534,SBT4050,1,4,3.53238,-0.07399,1924.563,22,
1534,SBT4050,1,4,3.53377,-0.06599,1924.723,21.9,
1534,SBT4050,1,4,3.3694,-6.786,1928.308,21.9,
1534,SBT4050,1,4,3.10004,-14.5,1953.32,21.8,
1534,SBT4050,1,4,3.3103,-4.772,1974.945,21.9,
1534,SBT4050,1,4,3.57869,4.0002,1976.029,22.2,
1534,SBT4050,1,4,3.60156,3.7009,1976.029,22.3,
1534,SBT4050,1,4,3.39153,-4.9261,1981.088,22.3,
1534,SBT4050,1,4,3.59823,4.0002,1985.6,22.3,
1534,SBT4050,1,4,3.55289,0.931,1985.6,22.3,
1534,SBT4050,1,4,3.52927,-0.052,1985.635,22.2,
1534,SBT4050,1,4,3.53027,-0.042997,1985.661,22.1,
1534,SBT4050,1,4,3.53841,0.21998,1985.703,22,
1534,SBT4050,1,4,3.14865,-14.499,1996.616,22,
1534,SBT4050,1,4,3.07332,-14.001,2024.72,21.9,
1534,SBT4050,1,4,3.3188,-4.8132,2037.859,22.1,
1534,SBT4050,1,4,3.29341,-5.049,2052.495,22.3,
1534,SBT4050,1,4,3.20885,-8.47,2062.863,22.5,
1534,SBT4050,1,4,3.40251,-1.4479,2069.616,22.6,
1534,SBT4050,1,4,3.57819,3.9996,2069.758,22.7,
1534,SBT4050,1,4,3.60045,3.9999,2069.758,22.6,
1534,SBT4050,1,4,3.61493,4.0007,2069.758,22.6,
1534,SBT4050,1,4,3.58227,2,2069.758,22.5,
1534,SBT4050,1,4,3.52737,-0.082,2069.792,22.5,
1534,SBT4050,1,4,3.52802,0.09401,2069.833,22.3,
1534,SBT4050,1,4,3.522646,-0.133,2069.887,22.2,
1534,SBT4050,1,4,3.16217,-12.655,2085.044,22.1,
1534,SBT4050,1,4,3.326961,-4.5195,2103.947,22.1,
1534,SBT4050,1,4,3.292312,-5.829,2114.121,22.2,
1534,SBT4050,1,4,3.34812,-3.2102,2125.138,22.3,
1534,SBT4050,1,4,3.38327,-2.783,2127.847,22.4,
1534,SBT4050,1,4,3.453146,-0.04901,2131.987,22.5,
1534,SBT4050,1,4,3.5536,2.9092,2131.991,22.4,
1534,SBT4050,1,4,3.60085,4.0001,2131.991,22.3,
1534,SBT4050,1,4,3.50961,-0.6228,2132.103,22.2,
1534,SBT4050,1,4,3.349657,-5.211,2142.59,22.1,
1534,SBT4050,1,4,3.4178,-2.2469,2148.284,22.1,
1534,SBT4050,1,4,3.58616,3.9076,2149.232,22.1,
1534,SBT4050,1,4,3.51722,0.22397,2149.232,22,
1534,SBT4050,1,4,3.49143,-0.35699,2151.549,21.9,
1534,SBT4050,1,4,3.53954,1.3349,2151.584,21.8,
1534,SBT4050,1,4,3.61358,3.9998,2151.584,21.8,
1534,SBT4050,1,4,3.55634,0.9849,2151.584,21.7,
1534,SBT4050,1,4,3.58062,2.4959,2153.375,21.7,
1534,SBT4050,1,4,3.53704,0.42698,2153.397,21.6,
1534,SBT4050,1,4,3.58147,1.9061,2153.397,21.6,
1534,SBT4050,1,4,3.53796,-0.13398,2153.421,21.5,
1534,SBT4050,1,4,3.53281,-0.07199,2153.581,21.4,
1534,SBT4050,1,4,3.53033,-0.05701,2153.704,21.4,
1534,SBT4050,1,4,3.468706,-2.3233,2154.995,21.3,
1534,SBT4050,1,4,3.46093,-2.1349,2158.747,21.3,
1534,SBT4050,1,4,3.31416,-6.6,2168.058,21.2,
1534,SBT4050,1,4,3.36444,-4.0013,2177.655,21.2,
1534,SBT4050,1,4,3.344419,-4.4582,2185.339,21.2,
1534,SBT4050,1,4,3.32322,-4.7775,2194.081,21.2,
1534,SBT4050,1,4,3.32783,-4.3347,2202.158,21.3,
1534,SBT4050,1,4,3.540006,3.1606,2206.393,21.3,
1534,SBT4050,1,4,3.487578,0.20997,2206.393,21.3,
1534,SBT4050,1,4,3.48441,-0.039996,2206.454,21.3,
1534,SBT4050,1,4,3.487592,-0.033996,2206.518,21.3,
1534,SBT4050,1,4,3.48946,-0.048997,2206.584,21.2,
1534,SBT4050,1,4,3.49142,-0.033997,2206.652,21.1,
1534,SBT4050,1,4,3.49313,-0.035991,2206.731,21.1,
1534,SBT4050,1,4,3.49425,-0.035,2206.804,21,
1534,SBT4050,1,4,3.49534,-0.041003,2206.859,21,
1534,SBT4050,1,4,3.49635,-0.037999,2206.925,20.9,
1534,SBT4050,1,4,3.49704,-0.046996,2206.997,20.9,
1534,SBT4050,1,4,3.49821,-0.030002,2207.069,20.9,
1534,SBT4050,1,4,3.499,-0.023999,2207.125,20.9,
1534,SBT4050,1,4,3.49909,-0.039005,2207.195,20.8,
1534,SBT4050,1,4,3.49952,-0.035003,2207.262,20.8,
1534,SBT4050,1,4,3.50019,-0.031997,2207.312,20.7,
1534,SBT4050,1,4,3.50063,-0.033996,2207.376,20.7,
1534,SBT4050,1,4,3.50134,-0.025996,2207.442,20.7,
1534,SBT4050,1,4,3.50157,-0.032994,2207.508,20.6,
1534,SBT4050,1,4,3.50222,-0.022002,2207.572,20.6,
1534,SBT4050,1,4,3.50226,-0.034998,2207.635,20.6,
1534,SBT4050,1,4,3.502714,-0.027997,2207.696,20.5,
1534,SBT4050,1,4,3.50278,-0.037998,2207.76,20.5,
1534,SBT4050,1,4,3.5036,-0.023,2207.824,20.5,
1534,SBT4050,1,4,3.50373,-0.029998,2207.897,20.5,
1534,SBT4050,1,4,3.50408,-0.024996,2207.958,20.5,
1534,SBT4050,1,4,3.50424,-0.029,2208.027,20.5,
1534,SBT4050,1,4,3.50437,-0.034994,2208.087,20.4,
1534,SBT4050,1,4,3.50441,-0.038993,2208.157,20.4,
1534,SBT4050,1,4,3.50465,-0.036999,2208.228,20.4,
1534,SBT4050,1,4,3.50501,-0.034002,2208.285,20.4,
1534,SBT4050,1,4,3.5051,-0.032996,2208.346,20.4,
1534,SBT4050,1,4,3.50523,-0.037003,2208.414,20.3,
1534,SBT4050,1,4,3.50577,-0.028001,2208.481,20.3,
1534,SBT4050,1,4,3.50612,-0.024001,2208.541,20.3,
1534,SBT4050,1,4,3.50594,-0.031,2208.598,20.3,
1534,SBT4050,1,4,3.50599,-0.024999,2208.661,20.3,
1534,SBT4050,1,4,3.50638,-0.023001,2208.717,20.3,
1534,SBT4050,1,4,3.5065,-0.028,2208.777,20.3,
1534,SBT4050,1,4,3.5063,-0.033002,2208.836,20.3,
1534,SBT4050,1,4,3.50679,-0.025001,2208.891,20.3,
1534,SBT4050,1,4,3.50692,-0.028998,2208.94,20.2,
1534,SBT4050,1,4,3.50716,-0.023997,2208.988,20.3,
1534,SBT4050,1,4,3.5072,-0.026997,2209.034,20.2,
1534,SBT4050,1,4,3.507134,-0.029998,2209.085,20.2,
1534,SBT4050,1,4,3.507212,-0.041002,2209.131,20.2,
1534,SBT4050,1,4,3.507416,-0.026999,2209.194,20.2,
1534,SBT4050,1,4,3.50776,-0.026001,2209.237,20.2,
1534,SBT4050,1,4,3.50779,-0.029997,2209.293,20.2,
1534,SBT4050,1,4,3.50771,-0.025001,2209.342,20.2,
1534,SBT4050,1,4,3.50818,-0.026001,2209.4,20.2,
1534,SBT4050,1,4,3.508104,-0.027004,2209.448,20.2,
1534,SBT4050,1,4,3.50839,-0.012999,2209.5,20.2,
1534,SBT4050,1,4,3.507984,-0.025003,2209.553,20.2,
1534,SBT4050,1,4,3.507994,-0.026999,2209.606,20.2,
1534,SBT4050,1,4,3.50835,-0.017987,2209.66,20.2,
1534,SBT4050,1,4,3.5084,-0.031996,2209.707,20.2,
1534,SBT4050,1,4,3.50886,-0.021002,2209.748,20.2,
1534,SBT4050,1,4,3.50839,-0.038997,2209.799,20.2,
1534,SBT4050,1,4,3.50856,-0.043992,2209.847,20.1,
1534,SBT4050,1,4,3.50874,-0.027,2209.901,20.1,
1534,SBT4050,1,4,3.50907,-0.017992,2209.948,20.1,
1534,SBT4050,1,4,3.50907,-0.023998,2209.99,20.1,
1534,SBT4050,1,4,3.50885,-0.033,2210.043,20.1,
1534,SBT4050,1,4,3.50885,-0.033,2210.097,20.2,
1534,SBT4050,1,4,3.50938,-0.02,2210.143,20.1,
1534,SBT4050,1,4,3.5092,-0.024,2210.2,20.2,
1534,SBT4050,1,4,3.50881,-0.044997,2210.252,20.1,
1534,SBT4050,1,4,3.50927,-0.026997,2210.308,20.2,
1534,SBT4050,1,4,3.50931,-0.030002,2210.361,20.1,
1534,SBT4050,1,4,3.50939,-0.017988,2210.412,20.1,
1534,SBT4050,1,4,3.5096,-0.026998,2210.456,20.1,
1534,SBT4050,1,4,3.50948,-0.033,2210.501,,
1534,SBT4050,1,4,3.51046,0,2210.501,20.1,
1534,SBT4050,1,4,3.510634,0,2210.501,20.1,
1534,SBT4050,1,4,3.51099,0,2210.501,20.1,
1534,SBT4050,1,4,3.511142,0,2210.501,20.1,
1534,SBT4050,1,4,3.511084,0,2210.501,20.1,
1534,SBT4050,1,4,3.51118,0,2210.501,20.1,
1534,SBT4050,1,4,3.51117,0,2210.501,20.1,
1534,SBT4050,1,4,3.51113,0,2210.501,20.1,
1534,SBT4050,1,4,3.51126,0,2210.501,20.1,
1534,SBT4050,1,4,3.51137,0,2210.501,20.1,
1534,SBT4050,1,4,3.511486,0,2210.501,20.1,
1534,SBT4050,1,4,3.51156,0,2210.501,20.1,
1534,SBT4050,1,4,3.511636,0,2210.501,20.1,
1534,SBT4050,1,4,3.51167,0,2210.501,20.1,
1534,SBT4050,1,4,3.51184,0,2210.501,20.1,
1534,SBT4050,1,4,3.51193,0,2210.501,20.1,
1534,SBT4050,1,4,3.51202,0,2210.501,20.1,
1534,SBT4050,1,4,3.51194,0,2210.501,20.1,
1534,SBT4050,1,4,3.51216,0,2210.501,20.1,
1534,SBT4050,1,4,3.51216,0,2210.501,20.1,
1534,SBT4050,1,4,3.51229,0,2210.501,20.1,
1534,SBT4050,1,4,3.512278,0,2210.501,20.1,
1534,SBT4050,1,4,3.51245,0,2210.501,20.1,
1534,SBT4050,1,4,3.51234,0,2210.501,20.1,
1534,SBT4050,1,4,3.51245,0,2210.501,20.1,
1534,SBT4050,1,4,3.51237,0,2210.501,20.1,
1534,SBT4050,1,4,3.51257,0,2210.501,20.1,
1534,SBT4050,1,4,3.512596,0,2210.501,20.1,
1534,SBT4050,1,4,3.51264,0,2210.501,20.1,
1534,SBT4050,1,4,3.51266,0,2210.501,20.1,
1534,SBT4050,1,4,3.51282,0,2210.501,20.1,
1534,SBT4050,1,4,3.51315,0,2210.501,20.1,
1534,SBT4050,1,4,3.51281,0,2210.501,20.1,
1534,SBT4050,1,4,3.51287,0,2210.501,20.1,
1534,SBT4050,1,4,3.513,0,2210.501,20.1,
1534,SBT4050,1,4,3.51312,0,2210.501,20.1,
1534,SBT4050,1,4,3.513,0,2210.501,20.1,
1534,SBT4050,1,4,3.51321,0,2210.501,20.1,
1534,SBT4050,1,4,3.51328,0,2210.501,20.1,
1534,SBT4050,1,4,3.51342,0,2210.501,20.1,
1534,SBT4050,1,4,3.51345,0,2210.501,20.1,
1534,SBT4050,1,4,3.513296,0,2210.501,20.1,
1534,SBT4050,1,4,3.51359,-0.000109,2210.501,,